Folder: Auto_Polymerization (part 2)

File: spectrum_2025-06-19_08-49-30.txt
# Wavelength (nm)	Intensity (a.u.)
197.7802	0.000899
200.4334	-0.001512
203.0892	-0.001956
205.7475	-0.001406
208.4084	-0.000243
211.0718	0.000328
213.7376	-0.002125
216.4060	-0.000899
219.0769	0.000793
221.7503	-0.000074
224.4262	0.000560
227.1046	-0.000095
229.7855	-0.002209
232.4688	-0.000751
235.1546	-0.000497
237.8429	0.000074
240.5337	0.000180
243.2269	-0.000412
245.9225	-0.000053
248.6206	-0.001343
251.3212	0.000729
254.0242	-0.000645
256.7296	-0.000856
259.4375	-0.001152
262.1477	0.001364
264.8604	0.000074
267.5755	-0.000560
270.2931	0.001173
273.0130	-0.001427
275.7353	-0.000941
278.4600	0.000412
281.1871	-0.001660
283.9166	0.000772
286.6484	-0.000307
289.3827	0.000349
292.1193	-0.001575
294.8582	0.000053
297.5995	0.000814
300.3432	0.002357
303.0892	-0.000962
305.8376	0.001237
308.5883	0.000264
311.3413	0.000856
314.0967	-0.001068
316.8543	-0.000433
319.6143	0.000603
322.3766	0.000285
325.1412	-0.000835
327.9082	0.000201
330.6774	0.001427
333.4489	-0.000666
336.2227	-0.000243
338.9987	0.000095
341.7771	-0.000497
344.5577	-0.000433
347.3406	-0.000328
350.1257	0.000011
352.9131	-0.000032
355.7027	0.000349
358.4946	0.001025
361.2888	0.000391
364.0851	0.000835
366.8837	0.000624
369.6845	-0.000899
372.4876	0.000729
375.2928	0.000180
378.1003	0.000222
380.9100	0.000497
383.7219	0.000497
386.5359	0.000201
389.3522	0.000201
392.1706	-0.001131
394.9912	0.001089
397.8140	-0.000243
400.6390	-0.000645
403.4661	-0.001617
406.2954	0.001068
409.1269	0.001660
411.9605	-0.002548
414.7962	-0.000074
417.6341	0.001089
420.4741	0.000941
423.3162	-0.001533
426.1605	0.000243
429.0068	0.000285
431.8553	-0.000074
434.7059	-0.000370
437.5586	0.000518
440.4135	0.000708
443.2703	0.002611
446.1293	0.000328
448.9904	0.001427
451.8535	-0.000983
454.7188	0.000497
457.5860	0.000603
460.4554	0.001427
463.3268	0.000518
466.2003	-0.001300
469.0758	-0.000328
471.9533	-0.000222
474.8329	0.001216
477.7145	-0.000328
480.5982	-0.000560
483.4838	0.000011
486.3715	0.000455
489.2612	-0.001512
492.1529	0.000624
495.0466	0.000497
497.9423	-0.000137
500.8400	-0.000095
503.7397	0.000772
506.6414	0.001639
509.5450	0.000708
512.4506	-0.000539
515.3582	0.001258
518.2677	-0.001639
521.1792	0.000455
524.0927	0.000116
527.0081	0.001892
529.9254	0.000349
532.8447	0.000264
535.7659	-0.000328
538.6890	0.000687
541.6140	0.001681
544.5410	0.000751
547.4699	0.001195
550.4007	0.000370
553.3333	-0.000264
556.2679	-0.000708
559.2044	0.000074
562.1427	-0.000074
565.0829	-0.000476
568.0250	0.000370
570.9690	0.000518
573.9149	0.000877
576.8626	0.000137
579.8121	0.000729
582.7635	-0.000920
585.7167	0.001596
588.6718	-0.001131
591.6288	-0.000053
594.5875	-0.000581
597.5481	0.000180
600.5105	-0.000476
603.4747	-0.000666
606.4407	-0.000243
609.4085	-0.000433
612.3781	-0.001681
615.3495	0.001343
618.3227	0.000962
621.2977	0.000624
624.2745	-0.000159
627.2530	0.000285
630.2333	0.001195
633.2154	-0.000518
636.1992	0.000645
639.1848	0.000391
642.1721	0.001354
645.1612	-0.000371
648.1520	0.000847
651.1445	0.000075
654.1388	0.001036
657.1348	0.000095
660.1325	0.001053
663.1319	-0.001276
666.1330	0.001967
669.1359	0.000201
672.1404	-0.000899
675.1466	-0.001808
678.1545	0.003605
681.1641	0.000729
684.1754	0.001533
687.1883	-0.000476
690.2029	-0.000137
693.2192	0.001279
696.2371	-0.001110
699.2567	0.000581
702.2779	-0.001089
705.3008	0.001195
708.3253	-0.001660
711.3514	-0.000137
714.3791	0.000307
717.4085	0.000476
720.4395	-0.000729
723.4721	-0.000772
726.5063	0.000412
729.5421	-0.000180
732.5795	-0.000856
735.6185	0.000328
738.6591	-0.001512
741.7013	0.000624
744.7450	-0.000412
747.7903	0.000666
750.8372	-0.000476
753.8856	0.001004
756.9356	0.000159
759.9872	-0.002273
763.0403	0.000581
766.0949	-0.001237
769.1510	-0.000053
772.2087	-0.000729
775.2679	0.001956
778.3287	-0.000539
781.3909	0.001343
784.4547	-0.000053
787.5199	0.000243
790.5867	0.000011
793.6550	0.001554
796.7247	0.000476
799.7959	0.000159
802.8686	-0.000603
805.9428	0.001469
809.0185	0.001279
812.0956	0.000285
815.1742	0.000201
818.2542	0.000349
821.3357	-0.000899
824.4186	-0.000941
827.5029	-0.000687
830.5887	-0.000307
833.6759	0.000856
836.7646	0.000285
839.8546	0.000497
842.9461	0.000751
846.0390	0.000835
849.1333	-0.001004
852.2289	-0.001491
855.3260	-0.000476
858.4245	0.000243
861.5243	0.000560
864.6255	-0.000793
867.7281	0.000201
870.8321	0.000032
873.9374	-0.000856
877.0441	-0.000581
880.1521	-0.000032
883.2615	0.000032
886.3722	0.000433
889.4843	-0.000687
892.5977	0.000180
895.7124	-0.002463
898.8284	0.002611
901.9458	-0.000476
905.0644	-0.000433
908.1844	0.000328
911.3057	0.000391
914.4283	-0.001300
917.5521	-0.001195
920.6773	-0.000222
923.8037	-0.000307
926.9314	-0.000772
930.0604	-0.000180
933.1906	-0.000433
936.3221	-0.000095
939.4549	-0.000603
942.5889	0.000899
945.7241	0.001765
948.8606	0.000285
951.9983	-0.000476
955.1373	-0.001004
958.2775	0.001723
961.4189	0.000307
964.5615	0.001068
967.7053	0.000032
970.8504	0.000687
973.9966	0.000497
977.1440	0.000370
980.2926	0.000243
983.4424	0.000814
986.5934	0.001321
989.7456	0.000349
992.8989	-0.002273
996.0534	-0.000391
999.2090	-0.000518
1002.37	0.000603
1005.52	-0.000455
1008.68	-0.001258
1011.84	-0.000053
1015	-0.000645
1018.17	-0.000391
1021.33	-0.000518
1023.03	-0.003119

File: spectrum_2025-06-19_08-54-37.txt
# Wavelength (nm)	Intensity (a.u.)
197.7802	0.000828
200.4334	-0.000525
203.0892	0.000574
205.7475	0.000109
208.4084	0.000997
211.0718	0.000300
213.7376	-0.000462
216.4060	-0.001836
219.0769	0.000511
221.7503	0.000173
224.4262	0.000870
227.1046	-0.000377
229.7855	-0.002407
232.4688	0.000532
235.1546	-0.001688
237.8429	0.000426
240.5337	0.000596
243.2269	0.000405
245.9225	0.002583
248.6206	-0.000123
251.3212	0.000215
254.0242	-0.000800
256.7296	-0.000039
259.4375	0.000553
262.1477	0.000405
264.8604	-0.000694
267.5755	0.000870
270.2931	-0.000673
273.0130	-0.000546
275.7353	-0.000927
278.4600	0.000870
281.1871	-0.000525
283.9166	-0.000271
286.6484	-0.000081
289.3827	0.000849
292.1193	-0.000102
294.8582	-0.000060
297.5995	-0.000102
300.3432	0.000638
303.0892	-0.000144
305.8376	0.000490
308.5883	-0.000800
311.3413	0.000448
314.0967	-0.001561
316.8543	-0.000504
319.6143	-0.000166
322.3766	-0.000123
325.1412	-0.000779
327.9082	0.000786
330.6774	0.002985
333.4489	-0.000271
336.2227	-0.000927
338.9987	0.000574
341.7771	-0.000440
344.5577	0.000426
347.3406	-0.001075
350.1257	0.001209
352.9131	-0.000525
355.7027	-0.000462
358.4946	0.000849
361.2888	0.000109
364.0851	0.002266
366.8837	0.000744
369.6845	0.000025
372.4876	0.001357
375.2928	-0.001836
378.1003	0.000680
380.9100	0.000067
383.7219	-0.000948
386.5359	-0.000990
389.3522	0.000236
392.1706	-0.000060
394.9912	0.000807
397.8140	0.000617
400.6390	0.001336
403.4661	-0.000525
406.2954	0.000067
409.1269	0.001018
411.9605	-0.000525
414.7962	0.000109
417.6341	0.000278
420.4741	0.001251
423.3162	-0.000483
426.1605	-0.000588
429.0068	0.000278
431.8553	0.001441
434.7059	-0.000377
437.5586	0.001632
440.4135	0.000448
443.2703	-0.000271
446.1293	0.001103
448.9904	-0.001117
451.8535	0.000511
454.7188	-0.000356
457.5860	0.001230
460.4554	0.000511
463.3268	0.000511
466.2003	0.000342
469.0758	-0.000483
471.9533	-0.001033
474.8329	0.001061
477.7145	-0.002703
480.5982	-0.000440
483.4838	0.000342
486.3715	0.000046
489.2612	-0.000863
492.1529	-0.001202
495.0466	0.001864
497.9423	-0.000018
500.8400	-0.001244
503.7397	-0.000060
506.6414	0.000997
509.5450	-0.000398
512.4506	-0.001455
515.3582	0.002498
518.2677	-0.001223
521.1792	0.000955
524.0927	0.000152
527.0081	0.000342
529.9254	0.001040
532.8447	0.000828
535.7659	0.001230
538.6890	0.000130
541.6140	0.000786
544.5410	0.000997
547.4699	0.001378
550.4007	-0.001815
553.3333	-0.000144
556.2679	-0.000483
559.2044	0.000342
562.1427	0.000384
565.0829	0.000976
568.0250	-0.000631
570.9690	-0.000018
573.9149	0.000469
576.8626	0.000300
579.8121	0.000511
582.7635	-0.000356
585.7167	-0.000779
588.6718	0.000532
591.6288	0.001928
594.5875	-0.001033
597.5481	-0.000758
600.5105	0.000215
603.4747	-0.000356
606.4407	0.000152
609.4085	-0.000377
612.3781	-0.000758
615.3495	0.001399
618.3227	0.000278
621.2977	0.000004
624.2745	0.000997
627.2530	0.001441
630.2333	0.001399
633.2154	0.000490
636.1992	-0.000567
639.1848	-0.000419
642.1721	0.001837
645.1612	-0.001681
648.1520	0.001147
651.1445	-0.000316
654.1388	0.001883
657.1348	-0.000144
660.1325	-0.000422
663.1319	-0.000355
666.1330	0.002086
669.1359	0.000426
672.1404	0.000046
675.1466	-0.000335
678.1545	0.001420
681.1641	0.000173
684.1754	0.002498
687.1883	-0.000610
690.2029	0.000088
693.2192	0.000426
696.2371	0.000469
699.2567	0.000934
702.2779	-0.000969
705.3008	-0.000821
708.3253	0.002456
711.3514	-0.000419
714.3791	-0.000081
717.4085	0.000088
720.4395	0.000278
723.4721	0.001399
726.5063	0.000130
729.5421	0.000405
732.5795	0.000596
735.6185	0.000532
738.6591	-0.000292
741.7013	0.000067
744.7450	-0.000187
747.7903	0.000807
750.8372	-0.000440
753.8856	-0.000419
756.9356	-0.000525
759.9872	-0.001899
763.0403	-0.001751
766.0949	0.001547
769.1510	0.002668
772.2087	-0.001455
775.2679	0.000744
778.3287	-0.001244
781.3909	-0.000166
784.4547	-0.000758
787.5199	0.001230
790.5867	-0.001202
793.6550	0.001420
796.7247	-0.000863
799.7959	0.000511
802.8686	0.001082
805.9428	-0.000588
809.0185	-0.001667
812.0956	0.000194
815.1742	0.000617
818.2542	0.000997
821.3357	-0.000335
824.4186	0.000511
827.5029	0.000067
830.5887	0.000786
833.6759	0.000067
836.7646	0.000490
839.8546	0.000596
842.9461	0.000765
846.0390	0.000934
849.1333	0.000913
852.2289	-0.000440
855.3260	-0.000588
858.4245	0.000109
861.5243	0.000574
864.6255	0.000405
867.7281	-0.000398
870.8321	0.000955
873.9374	-0.000018
877.0441	-0.001096
880.1521	-0.000462
883.2615	0.001293
886.3722	-0.000377
889.4843	-0.000018
892.5977	0.001378
895.7124	0.000152
898.8284	0.000321
901.9458	-0.000271
905.0644	0.000405
908.1844	-0.000906
911.3057	-0.000356
914.4283	-0.001921
917.5521	0.000638
920.6773	-0.001286
923.8037	-0.000292
926.9314	0.000617
930.0604	0.000109
933.1906	0.000744
936.3221	-0.001033
939.4549	0.000109
942.5889	0.001399
945.7241	0.001737
948.8606	0.000469
951.9983	-0.000123
955.1373	-0.000314
958.2775	0.000004
961.4189	0.000617
964.5615	0.000828
967.7053	-0.000546
970.8504	0.000807
973.9966	0.000067
977.1440	-0.000292
980.2926	-0.000166
983.4424	0.000384
986.5934	0.000426
989.7456	-0.000990
992.8989	-0.001899
996.0534	0.001293
999.2090	0.000913
1002.37	-0.000462
1005.52	0.000448
1008.68	-0.000863
1011.84	-0.001307
1015	0.000046
1018.17	0.000469
1021.33	0.000828
1023.03	-0.003358

File: spectrum_2025-06-19_08-59-44.txt
# Wavelength (nm)	Intensity (a.u.)
197.7802	-0.000643
200.4334	-0.000241
203.0892	-0.000707
205.7475	-0.000368
208.4084	0.000943
211.0718	-0.001066
213.7376	-0.001257
216.4060	-0.000411
219.0769	0.001197
221.7503	-0.000030
224.4262	0.000604
227.1046	-0.000960
229.7855	-0.001003
232.4688	0.000795
235.1546	0.000604
237.8429	0.001641
240.5337	0.000287
243.2269	-0.000326
245.9225	0.000837
248.6206	0.000647
251.3212	0.001620
254.0242	-0.001405
256.7296	0.000287
259.4375	-0.000939
262.1477	0.001450
264.8604	-0.000030
267.5755	-0.000834
270.2931	-0.001151
273.0130	-0.001278
275.7353	-0.001722
278.4600	0.000816
281.1871	0.000118
283.9166	-0.000812
286.6484	0.000499
289.3827	-0.000791
292.1193	-0.000834
294.8582	0.000499
297.5995	-0.000136
300.3432	-0.000051
303.0892	-0.001870
305.8376	-0.000559
308.5883	-0.000770
311.3413	0.000541
314.0967	0.000266
316.8543	-0.000960
319.6143	0.000478
322.3766	-0.000580
325.1412	-0.000136
327.9082	0.001450
330.6774	-0.000559
333.4489	-0.000241
336.2227	0.000964
338.9987	-0.000326
341.7771	-0.000368
344.5577	0.000414
347.3406	-0.000368
350.1257	-0.000538
352.9131	0.000943
355.7027	0.000901
358.4946	0.000478
361.2888	-0.000220
364.0851	0.000922
366.8837	0.000499
369.6845	0.000076
372.4876	-0.000960
375.2928	-0.001680
378.1003	0.000393
380.9100	0.001535
383.7219	-0.000051
386.5359	-0.000559
389.3522	-0.000093
392.1706	-0.000241
394.9912	0.000964
397.8140	0.000478
400.6390	-0.001278
403.4661	-0.001722
406.2954	-0.000368
409.1269	0.001514
411.9605	-0.000707
414.7962	-0.000643
417.6341	0.001197
420.4741	0.000182
423.3162	-0.001658
426.1605	0.000520
429.0068	-0.001405
431.8553	0.001472
434.7059	-0.001595
437.5586	0.000626
440.4135	-0.001701
443.2703	0.000604
446.1293	0.000583
448.9904	-0.000664
451.8535	-0.001214
454.7188	0.000414
457.5860	-0.000876
460.4554	-0.001426
463.3268	-0.001193
466.2003	-0.000939
469.0758	0.000118
471.9533	-0.001045
474.8329	-0.001172
477.7145	-0.001257
480.5982	-0.000876
483.4838	0.000435
486.3715	0.000583
489.2612	-0.001172
492.1529	0.000435
495.0466	0.000160
497.9423	0.000139
500.8400	-0.000326
503.7397	0.000562
506.6414	0.000266
509.5450	0.000203
512.4506	-0.002568
515.3582	0.001027
518.2677	-0.001087
521.1792	0.000879
524.0927	0.000266
527.0081	-0.000157
529.9254	0.001154
532.8447	0.000203
535.7659	-0.000157
538.6890	-0.000834
541.6140	-0.000368
544.5410	-0.001087
547.4699	-0.001235
550.4007	-0.002610
553.3333	-0.000686
556.2679	-0.001658
559.2044	0.000308
562.1427	-0.000389
565.0829	0.000964
568.0250	-0.000580
570.9690	-0.001172
573.9149	-0.000009
576.8626	0.000139
579.8121	0.000858
582.7635	0.000499
585.7167	0.002381
588.6718	-0.001447
591.6288	-0.001193
594.5875	-0.001109
597.5481	-0.000897
600.5105	-0.001764
603.4747	0.000562
606.4407	0.000118
609.4085	-0.001426
612.3781	0.000287
615.3495	0.002085
618.3227	-0.001828
621.2977	-0.000115
624.2745	0.000689
627.2530	0.001302
630.2333	0.002487
633.2154	-0.000157
636.1992	0.000541
639.1848	-0.001172
642.1721	0.001142
645.1612	0.001339
648.1520	0.000519
651.1445	0.000204
654.1388	0.001530
657.1348	-0.000791
660.1325	0.000097
663.1319	-0.001042
666.1330	0.000980
669.1359	-0.001045
672.1404	-0.001193
675.1466	-0.001151
678.1545	0.001662
681.1641	-0.000770
684.1754	0.001620
687.1883	-0.001109
690.2029	0.000499
693.2192	-0.001933
696.2371	-0.000664
699.2567	0.000541
702.2779	-0.000495
705.3008	0.001027
708.3253	-0.001743
711.3514	-0.000072
714.3791	0.000541
717.4085	0.001683
720.4395	0.000330
723.4721	0.000097
726.5063	-0.000220
729.5421	0.001895
732.5795	0.000308
735.6185	-0.000389
738.6591	-0.000897
741.7013	0.000647
744.7450	-0.000136
747.7903	-0.000495
750.8372	-0.000918
753.8856	0.000245
756.9356	-0.000115
759.9872	-0.001193
763.0403	-0.000538
766.0949	-0.002018
769.1510	0.000795
772.2087	0.000182
775.2679	0.000964
778.3287	0.000816
781.3909	0.001239
784.4547	0.000351
787.5199	0.001027
790.5867	-0.000241
793.6550	0.001239
796.7247	-0.000263
799.7959	-0.000199
802.8686	-0.001193
805.9428	0.000731
809.0185	-0.000559
812.0956	-0.001066
815.1742	0.000795
818.2542	-0.000411
821.3357	-0.000326
824.4186	0.001239
827.5029	-0.000939
830.5887	-0.001109
833.6759	0.001831
836.7646	0.000456
839.8546	-0.000347
842.9461	-0.000093
846.0390	-0.000960
849.1333	-0.001172
852.2289	-0.000178
855.3260	-0.000897
858.4245	0.002254
861.5243	0.000224
864.6255	0.000033
867.7281	-0.001426
870.8321	0.000731
873.9374	-0.000897
877.0441	-0.000411
880.1521	-0.000115
883.2615	-0.001257
886.3722	-0.000876
889.4843	0.000499
892.5977	-0.000115
895.7124	-0.001024
898.8284	0.001027
901.9458	0.000710
905.0644	0.000879
908.1844	-0.000559
911.3057	0.001049
914.4283	0.000520
917.5521	0.000224
920.6773	0.000351
923.8037	-0.001130
926.9314	-0.000474
930.0604	0.000139
933.1906	-0.000199
936.3221	-0.000812
939.4549	-0.000749
942.5889	0.000033
945.7241	0.000668
948.8606	-0.000474
951.9983	0.000055
955.1373	-0.000728
958.2775	0.000626
961.4189	-0.000389
964.5615	-0.000411
967.7053	-0.002420
970.8504	-0.000601
973.9966	0.000287
977.1440	0.000287
980.2926	0.000012
983.4424	0.000604
986.5934	-0.000326
989.7456	-0.001087
992.8989	-0.001743
996.0534	-0.001003
999.2090	0.000604
1002.37	0.001387
1005.52	-0.000855
1008.68	-0.000157
1011.84	0.000435
1015	-0.000368
1018.17	0.000076
1021.33	-0.000347
1023.03	-0.001172

File: spectrum_2025-06-19_09-04-51.txt
# Wavelength (nm)	Intensity (a.u.)
197.7802	0.001003
200.4334	0.000495
203.0892	-0.000922
205.7475	0.000559
208.4084	0.002018
211.0718	0.000284
213.7376	-0.001387
216.4060	-0.000858
219.0769	0.000664
221.7503	0.000389
224.4262	0.000093
227.1046	-0.001239
229.7855	-0.000837
232.4688	0.000051
235.1546	0.000136
237.8429	0.000051
240.5337	0.000051
243.2269	-0.000435
245.9225	0.000749
248.6206	-0.001112
251.3212	0.001489
254.0242	0.000051
256.7296	-0.000583
259.4375	-0.000456
262.1477	0.000876
264.8604	0.001108
267.5755	-0.000668
270.2931	0.000284
273.0130	-0.001704
275.7353	-0.000795
278.4600	0.000537
281.1871	-0.001070
283.9166	-0.000626
286.6484	-0.000922
289.3827	0.001320
292.1193	-0.000414
294.8582	0.000622
297.5995	0.000897
300.3432	-0.001408
303.0892	-0.001112
305.8376	-0.000033
308.5883	-0.000182
311.3413	-0.000033
314.0967	-0.000710
316.8543	0.001870
319.6143	0.001870
322.3766	-0.000435
325.1412	-0.000033
327.9082	-0.000541
330.6774	0.000939
333.4489	-0.001027
336.2227	-0.000795
338.9987	-0.000541
341.7771	-0.000139
344.5577	0.000791
347.3406	-0.000393
350.1257	0.001024
352.9131	0.001574
355.7027	0.001764
358.4946	-0.000203
361.2888	0.001151
364.0851	0.000770
366.8837	-0.000689
369.6845	-0.000901
372.4876	-0.000182
375.2928	-0.000985
378.1003	-0.000668
380.9100	0.001637
383.7219	0.001320
386.5359	0.000918
389.3522	-0.000287
392.1706	-0.000774
394.9912	0.000368
397.8140	0.000263
400.6390	0.001933
403.4661	-0.001641
406.2954	0.000178
409.1269	0.000115
411.9605	0.000178
414.7962	0.000093
417.6341	-0.000435
420.4741	-0.000499
423.3162	-0.000456
426.1605	0.001235
429.0068	0.001531
431.8553	-0.001514
434.7059	-0.000562
437.5586	0.000157
440.4135	0.000411
443.2703	0.000389
446.1293	0.000009
448.9904	0.000728
451.8535	0.000474
454.7188	-0.000287
457.5860	0.001912
460.4554	0.000897
463.3268	-0.000203
466.2003	-0.001006
469.0758	-0.000203
471.9533	0.000622
474.8329	0.000897
477.7145	-0.000795
480.5982	0.000495
483.4838	-0.001493
486.3715	0.000897
489.2612	-0.000139
492.1529	-0.001535
495.0466	-0.000266
497.9423	0.000432
500.8400	0.001933
503.7397	-0.001514
506.6414	-0.000541
509.5450	0.000559
512.4506	0.000876
515.3582	0.000918
518.2677	0.000009
521.1792	-0.000372
524.0927	-0.000055
527.0081	0.000664
529.9254	-0.000943
532.8447	-0.001366
535.7659	-0.001112
538.6890	-0.000456
541.6140	-0.000118
544.5410	-0.001154
547.4699	0.001320
550.4007	-0.001852
553.3333	-0.000901
556.2679	0.002293
559.2044	-0.000203
562.1427	0.001024
565.0829	-0.002296
568.0250	-0.000097
570.9690	-0.000689
573.9149	0.000474
576.8626	0.000284
579.8121	-0.001133
582.7635	0.000559
585.7167	0.000516
588.6718	-0.001175
591.6288	-0.001979
594.5875	-0.001027
597.5481	-0.001958
600.5105	0.001362
603.4747	-0.001302
606.4407	0.000453
609.4085	0.000093
612.3781	0.001468
615.3495	-0.001831
618.3227	0.001658
621.2977	-0.001535
624.2745	-0.000203
627.2530	0.000305
630.2333	-0.000287
633.2154	-0.001302
636.1992	-0.000160
639.1848	0.001130
642.1721	-0.000972
645.1612	0.001200
648.1520	-0.000387
651.1445	0.000926
654.1388	0.001462
657.1348	-0.001767
660.1325	-0.000204
663.1319	0.003931
666.1330	-0.000096
669.1359	-0.000182
672.1404	0.000495
675.1466	-0.000710
678.1545	0.001870
681.1641	-0.000964
684.1754	-0.000308
687.1883	0.000326
690.2029	0.001214
693.2192	-0.000520
696.2371	0.000093
699.2567	0.002250
702.2779	-0.000351
705.3008	-0.000414
708.3253	-0.001133
711.3514	0.001595
714.3791	-0.000816
717.4085	-0.000393
720.4395	-0.000118
723.4721	-0.000224
726.5063	0.000453
729.5421	0.000220
732.5795	-0.000012
735.6185	-0.000689
738.6591	0.000030
741.7013	0.000284
744.7450	0.000178
747.7903	-0.000033
750.8372	0.000728
753.8856	-0.000478
756.9356	-0.000203
759.9872	-0.000118
763.0403	0.000389
766.0949	-0.000076
769.1510	-0.001366
772.2087	-0.000943
775.2679	0.000241
778.3287	0.000664
781.3909	0.000474
784.4547	0.000199
787.5199	-0.002127
790.5867	0.000537
793.6550	-0.000097
796.7247	-0.001471
799.7959	0.000897
802.8686	-0.001535
805.9428	-0.000118
809.0185	0.001151
812.0956	-0.001641
815.1742	0.000030
818.2542	-0.000182
821.3357	-0.001810
824.4186	0.001172
827.5029	-0.001916
830.5887	-0.000668
833.6759	0.000178
836.7646	0.000009
839.8546	0.000495
842.9461	0.001214
846.0390	-0.000922
849.1333	0.000305
852.2289	-0.000055
855.3260	0.001003
858.4245	-0.000033
861.5243	-0.000203
864.6255	0.000241
867.7281	0.000157
870.8321	-0.001112
873.9374	-0.001810
877.0441	0.000284
880.1521	0.001066
883.2615	0.000960
886.3722	0.000093
889.4843	-0.000520
892.5977	-0.000308
895.7124	0.000855
898.8284	-0.000922
901.9458	0.000537
905.0644	-0.000372
908.1844	-0.000626
911.3057	0.000495
914.4283	0.000580
917.5521	-0.001091
920.6773	0.000791
923.8037	-0.000076
926.9314	-0.001239
930.0604	-0.001789
933.1906	-0.000139
936.3221	-0.000139
939.4549	-0.000520
942.5889	0.000812
945.7241	-0.000541
948.8606	-0.001514
951.9983	0.000580
955.1373	0.000157
958.2775	0.000939
961.4189	-0.000245
964.5615	-0.000858
967.7053	0.000157
970.8504	-0.000160
973.9966	-0.000858
977.1440	-0.001894
980.2926	0.001278
983.4424	-0.000266
986.5934	0.000664
989.7456	-0.000351
992.8989	-0.000541
996.0534	0.001214
999.2090	0.000136
1002.37	0.000199
1005.52	-0.000626
1008.68	0.001320
1011.84	-0.000182
1015	0.000939
1018.17	-0.000012
1021.33	0.001087
1023.03	-0.004073