Folder: Auto_Polymerization (part 3)

File: spectrum_2025-06-19_09-20-12.txt
# Wavelength (nm)	Intensity (a.u.)
197.7802	0.000427
200.4334	-0.000462
203.0892	0.000765
205.7475	-0.000187
208.4084	0.000427
211.0718	-0.001414
213.7376	-0.000462
216.4060	-0.000060
219.0769	0.000130
221.7503	-0.001244
224.4262	-0.000948
227.1046	-0.002006
229.7855	-0.001350
232.4688	0.000575
235.1546	0.000553
237.8429	0.000046
240.5337	0.000257
243.2269	-0.000187
245.9225	-0.000504
248.6206	0.000638
251.3212	0.002901
254.0242	-0.000187
256.7296	0.000067
259.4375	-0.000737
262.1477	-0.000102
264.8604	0.000765
267.5755	0.000511
270.2931	-0.000377
273.0130	-0.000504
275.7353	-0.000546
278.4600	-0.000504
281.1871	-0.000885
283.9166	-0.000525
286.6484	0.000955
289.3827	-0.000166
292.1193	-0.000991
294.8582	-0.000398
297.5995	-0.000123
300.3432	0.000871
303.0892	-0.000314
305.8376	0.000807
308.5883	-0.000060
311.3413	-0.000123
314.0967	0.000363
316.8543	0.000702
319.6143	-0.000779
322.3766	0.001082
325.1412	0.000977
327.9082	0.000109
330.6774	-0.000081
333.4489	-0.000377
336.2227	-0.000610
338.9987	0.000025
341.7771	0.000469
344.5577	0.000278
347.3406	-0.000991
350.1257	0.001273
352.9131	0.000130
355.7027	0.001590
358.4946	0.000977
361.2888	0.000680
364.0851	-0.000589
366.8837	-0.000018
369.6845	0.000427
372.4876	0.001251
375.2928	-0.000610
378.1003	0.000448
380.9100	0.000130
383.7219	-0.000716
386.5359	-0.001160
389.3522	-0.000377
392.1706	-0.000271
394.9912	-0.000420
397.8140	-0.001139
400.6390	0.001146
403.4661	-0.001033
406.2954	0.000511
409.1269	0.001273
411.9605	-0.000864
414.7962	-0.000631
417.6341	0.000786
420.4741	0.002436
423.3162	-0.000250
426.1605	0.001061
429.0068	0.000490
431.8553	0.001167
434.7059	0.000850
437.5586	-0.000398
440.4135	-0.000441
443.2703	0.001061
446.1293	-0.000166
448.9904	-0.000673
451.8535	0.000511
454.7188	-0.000991
457.5860	0.001823
460.4554	0.000236
463.3268	0.000088
466.2003	-0.001350
469.0758	-0.000821
471.9533	-0.000737
474.8329	-0.000377
477.7145	-0.000441
480.5982	-0.000631
483.4838	-0.001308
486.3715	-0.000018
489.2612	-0.000060
492.1529	0.000680
495.0466	-0.000060
497.9423	-0.000250
500.8400	-0.000271
503.7397	0.001526
506.6414	0.000490
509.5450	0.000215
512.4506	-0.000737
515.3582	0.000828
518.2677	-0.000927
521.1792	0.000046
524.0927	0.000638
527.0081	-0.000229
529.9254	0.000215
532.8447	-0.000229
535.7659	0.000257
538.6890	-0.000483
541.6140	0.000109
544.5410	-0.000081
547.4699	0.001675
550.4007	0.000363
553.3333	0.000300
556.2679	-0.000546
559.2044	-0.000102
562.1427	-0.000271
565.0829	0.000680
568.0250	-0.000779
570.9690	0.001696
573.9149	-0.000821
576.8626	0.000977
579.8121	-0.000441
582.7635	-0.000250
585.7167	-0.000568
588.6718	0.000194
591.6288	0.001928
594.5875	-0.000927
597.5481	-0.000271
600.5105	0.000321
603.4747	0.001019
606.4407	-0.000187
609.4085	-0.000800
612.3781	0.000173
615.3495	0.000427
618.3227	0.001230
621.2977	-0.000102
624.2745	-0.001160
627.2530	0.002055
630.2333	0.001632
633.2154	0.000490
636.1992	0.000998
639.1848	-0.000398
642.1721	0.002563
645.1612	-0.000333
648.1520	0.000356
651.1445	0.000430
654.1388	0.000281
657.1348	-0.000060
660.1325	-0.000060
663.1319	0.000341
666.1330	0.000551
669.1359	0.000046
672.1404	0.001273
675.1466	-0.000335
678.1545	0.001949
681.1641	0.000130
684.1754	0.001273
687.1883	0.000448
690.2029	-0.000589
693.2192	-0.001562
696.2371	0.000088
699.2567	-0.000081
702.2779	-0.000610
705.3008	-0.000694
708.3253	-0.001435
711.3514	-0.000906
714.3791	-0.001223
717.4085	0.001251
720.4395	0.001019
723.4721	0.000850
726.5063	0.000257
729.5421	-0.000081
732.5795	-0.001562
735.6185	-0.000546
738.6591	0.000765
741.7013	0.000363
744.7450	0.000067
747.7903	0.000046
750.8372	0.000469
753.8856	0.000575
756.9356	0.000278
759.9872	-0.001646
763.0403	-0.000504
766.0949	-0.001096
769.1510	0.001188
772.2087	-0.001837
775.2679	0.001759
778.3287	0.000300
781.3909	0.000955
784.4547	-0.001139
787.5199	0.000871
790.5867	-0.000377
793.6550	0.001146
796.7247	-0.000398
799.7959	0.001167
802.8686	0.000744
805.9428	-0.000314
809.0185	-0.001223
812.0956	-0.001541
815.1742	0.000892
818.2542	0.000405
821.3357	0.000278
824.4186	-0.000441
827.5029	-0.000694
830.5887	-0.000271
833.6759	0.001336
836.7646	0.000638
839.8546	0.001632
842.9461	0.000130
846.0390	-0.000060
849.1333	-0.000568
852.2289	-0.000356
855.3260	0.000152
858.4245	-0.000229
861.5243	0.001125
864.6255	-0.000779
867.7281	-0.000102
870.8321	-0.000314
873.9374	0.001188
877.0441	-0.000991
880.1521	0.000955
883.2615	0.000025
886.3722	-0.000441
889.4843	0.000469
892.5977	0.001928
895.7124	-0.000039
898.8284	0.001188
901.9458	0.000786
905.0644	0.000342
908.1844	-0.000039
911.3057	0.000680
914.4283	-0.000483
917.5521	-0.001075
920.6773	0.000130
923.8037	-0.000229
926.9314	-0.001435
930.0604	-0.000652
933.1906	-0.000631
936.3221	-0.000314
939.4549	0.001653
942.5889	0.000553
945.7241	0.000490
948.8606	0.000702
951.9983	0.001421
955.1373	-0.001266
958.2775	0.001865
961.4189	-0.000483
964.5615	0.001061
967.7053	-0.000568
970.8504	-0.000335
973.9966	0.000448
977.1440	0.001082
980.2926	-0.000610
983.4424	0.000596
986.5934	-0.001181
989.7456	0.000617
992.8989	-0.001879
996.0534	-0.000187
999.2090	0.000342
1002.37	0.000596
1005.52	-0.001075
1008.68	-0.001371
1011.84	0.000109
1015	-0.000610
1018.17	0.000702
1021.33	0.000173
1023.03	-0.000694

File: spectrum_2025-06-19_09-25-19.txt
# Wavelength (nm)	Intensity (a.u.)
197.7802	0.000243
200.4334	0.000328
203.0892	0.000560
205.7475	0.001152
208.4084	0.000687
211.0718	0.000074
213.7376	0.000751
216.4060	-0.001131
219.0769	0.000243
221.7503	0.000433
224.4262	0.001026
227.1046	-0.002231
229.7855	0.000497
232.4688	0.000899
235.1546	-0.000349
237.8429	-0.000349
240.5337	-0.000666
243.2269	-0.000391
245.9225	0.001047
248.6206	0.001448
251.3212	0.003204
254.0242	0.001406
256.7296	-0.000222
259.4375	0.000264
262.1477	0.002189
264.8604	0.002315
267.5755	0.002421
270.2931	0.000539
273.0130	0.000560
275.7353	-0.001195
278.4600	0.001787
281.1871	0.000793
283.9166	-0.000011
286.6484	0.000751
289.3827	-0.000581
292.1193	-0.000053
294.8582	0.000391
297.5995	0.002950
300.3432	0.001596
303.0892	0.000560
305.8376	-0.000730
308.5883	-0.000095
311.3413	0.002485
314.0967	0.000497
316.8543	0.000391
319.6143	0.001110
322.3766	0.000687
325.1412	0.001766
327.9082	0.002146
330.6774	0.000581
333.4489	0.000581
336.2227	0.000222
338.9987	0.000624
341.7771	-0.000095
344.5577	0.000983
347.3406	0.000285
350.1257	0.002146
352.9131	0.002611
355.7027	0.001258
358.4946	0.000666
361.2888	-0.001977
364.0851	0.002189
366.8837	0.000032
369.6845	-0.000476
372.4876	0.000920
375.2928	0.000708
378.1003	0.001322
380.9100	0.001512
383.7219	0.000518
386.5359	-0.000137
389.3522	0.000159
392.1706	-0.000328
394.9912	0.001174
397.8140	-0.001300
400.6390	0.000285
403.4661	0.000159
406.2954	0.000243
409.1269	0.001258
411.9605	-0.000581
414.7962	0.000687
417.6341	0.001512
420.4741	0.001470
423.3162	0.000222
426.1605	-0.000391
429.0068	0.000687
431.8553	-0.000391
434.7059	-0.000391
437.5586	0.000730
440.4135	0.000687
443.2703	0.002611
446.1293	0.002675
448.9904	-0.001174
451.8535	-0.000159
454.7188	-0.000391
457.5860	-0.000687
460.4554	0.000391
463.3268	0.000772
466.2003	-0.000455
469.0758	-0.000433
471.9533	-0.000476
474.8329	0.000222
477.7145	0.000730
480.5982	-0.000180
483.4838	-0.000772
486.3715	0.000560
489.2612	-0.000201
492.1529	0.000539
495.0466	-0.000222
497.9423	0.001279
500.8400	0.000560
503.7397	0.000539
506.6414	0.002189
509.5450	0.000624
512.4506	-0.000518
515.3582	0.002337
518.2677	-0.001026
521.1792	0.000983
524.0927	0.000708
527.0081	0.002125
529.9254	0.001406
532.8447	0.000793
535.7659	-0.000095
538.6890	0.000603
541.6140	0.000370
544.5410	-0.001300
547.4699	-0.000032
550.4007	-0.000497
553.3333	0.000856
556.2679	-0.002379
559.2044	0.001258
562.1427	-0.000349
565.0829	0.000814
568.0250	0.000856
570.9690	0.000370
573.9149	-0.000941
576.8626	-0.001300
579.8121	0.000518
582.7635	-0.000730
585.7167	0.001026
588.6718	-0.000666
591.6288	0.000518
594.5875	-0.000687
597.5481	-0.001004
600.5105	0.001216
603.4747	0.000201
606.4407	0.001871
609.4085	-0.000095
612.3781	0.000328
615.3495	0.001152
618.3227	0.003626
621.2977	0.000899
624.2745	-0.000878
627.2530	0.000349
630.2333	0.001808
633.2154	-0.000581
636.1992	0.002252
639.1848	0.000095
642.1721	0.002313
645.1612	0.001404
648.1520	0.002013
651.1445	0.000736
654.1388	0.000011
657.1348	-0.000032
660.1325	-0.000776
663.1319	-0.000200
666.1330	-0.000158
669.1359	0.002062
672.1404	0.000328
675.1466	0.001258
678.1545	0.001639
681.1641	0.001237
684.1754	0.001893
687.1883	0.000095
690.2029	0.000624
693.2192	-0.000074
696.2371	0.001026
699.2567	0.000243
702.2779	-0.000264
705.3008	-0.000180
708.3253	-0.000011
711.3514	0.000222
714.3791	-0.000074
717.4085	-0.000095
720.4395	0.000730
723.4721	0.001744
726.5063	0.000856
729.5421	0.001300
732.5795	0.001470
735.6185	0.000751
738.6591	-0.000011
741.7013	0.001533
744.7450	0.001131
747.7903	0.001195
750.8372	0.000455
753.8856	0.001026
756.9356	0.001470
759.9872	-0.000159
763.0403	-0.000835
766.0949	-0.000137
769.1510	0.002104
772.2087	0.000708
775.2679	0.000941
778.3287	0.000074
781.3909	0.001385
784.4547	-0.000708
787.5199	0.000920
790.5867	-0.000666
793.6550	0.001702
796.7247	0.002104
799.7959	0.001195
802.8686	0.001110
805.9428	0.000581
809.0185	0.000095
812.0956	0.001702
815.1742	0.000116
818.2542	0.000983
821.3357	0.000814
824.4186	0.000391
827.5029	-0.000370
830.5887	0.000095
833.6759	0.002252
836.7646	0.000899
839.8546	0.000159
842.9461	-0.000180
846.0390	-0.001216
849.1333	0.000687
852.2289	-0.000264
855.3260	0.000053
858.4245	0.001744
861.5243	0.000476
864.6255	0.001787
867.7281	0.000201
870.8321	0.000624
873.9374	0.000011
877.0441	-0.000856
880.1521	0.000159
883.2615	0.000349
886.3722	0.000433
889.4843	0.000497
892.5977	-0.000116
895.7124	0.000899
898.8284	0.001047
901.9458	0.000899
905.0644	0.001026
908.1844	-0.000835
911.3057	0.001512
914.4283	-0.001131
917.5521	-0.000856
920.6773	-0.000560
923.8037	0.000730
926.9314	0.001470
930.0604	0.000180
933.1906	0.001004
936.3221	0.000581
939.4549	0.002083
942.5889	-0.001152
945.7241	0.001258
948.8606	0.000814
951.9983	0.002611
955.1373	0.001131
958.2775	0.002083
961.4189	-0.000264
964.5615	0.001322
967.7053	-0.000243
970.8504	0.000856
973.9966	0.002104
977.1440	0.000011
980.2926	0.000793
983.4424	0.000899
986.5934	-0.000645
989.7456	-0.000920
992.8989	-0.000264
996.0534	-0.000560
999.2090	0.000645
1002.37	-0.000159
1005.52	-0.001152
1008.68	-0.000814
1011.84	0.000687
1015	-0.001174
1018.17	0.000518
1021.33	0.001533
1023.03	-0.001787

File: spectrum_2025-06-19_09-51-03.txt
# Wavelength (nm)	Intensity (a.u.)
197.7802	0.000702
200.4334	-0.000142
203.0892	-0.000100
205.7475	0.000744
208.4084	0.001335
211.0718	0.000469
213.7376	0.001081
216.4060	0.000343
219.0769	-0.000058
221.7503	0.000870
224.4262	0.000090
227.1046	-0.000522
229.7855	0.001229
232.4688	-0.000375
235.1546	0.000258
237.8429	0.001989
240.5337	0.001630
243.2269	-0.000459
245.9225	0.000301
248.6206	0.000364
251.3212	0.000828
254.0242	-0.001176
256.7296	-0.000164
259.4375	-0.000206
262.1477	0.000469
264.8604	0.000301
267.5755	0.001356
270.2931	-0.000142
273.0130	0.000512
275.7353	-0.000501
278.4600	0.000322
281.1871	-0.001134
283.9166	0.000174
286.6484	-0.000227
289.3827	0.001166
292.1193	0.000069
294.8582	0.000554
297.5995	0.001567
300.3432	0.000280
303.0892	-0.000860
305.8376	0.000659
308.5883	-0.000375
311.3413	-0.000100
314.0967	0.000870
316.8543	0.000680
319.6143	0.000280
322.3766	0.000195
325.1412	0.000575
327.9082	0.001588
330.6774	-0.000269
333.4489	0.000343
336.2227	-0.000185
338.9987	0.000090
341.7771	0.000807
344.5577	0.000448
347.3406	-0.001830
350.1257	0.000448
352.9131	0.000659
355.7027	0.000491
358.4946	0.001292
361.2888	0.000976
364.0851	0.000026
366.8837	0.000406
369.6845	-0.000016
372.4876	0.000976
375.2928	-0.000185
378.1003	0.000153
380.9100	0.000891
383.7219	0.001018
386.5359	0.001039
389.3522	0.002812
392.1706	0.005660
394.9912	0.010133
397.8140	0.015830
400.6390	0.018299
403.4661	0.020008
406.2954	0.024966
409.1269	0.027709
411.9605	0.028237
414.7962	0.029988
417.6341	0.029017
420.4741	0.032034
423.3162	0.032583
426.1605	0.031887
429.0068	0.029207
431.8553	0.029503
434.7059	0.031866
437.5586	0.028996
440.4135	0.030178
443.2703	0.034123
446.1293	0.029650
448.9904	0.028237
451.8535	0.025726
454.7188	0.023152
457.5860	0.020134
460.4554	0.021569
463.3268	0.017581
466.2003	0.015260
469.0758	0.011863
471.9533	0.011505
474.8329	0.009922
477.7145	0.007242
480.5982	0.007306
483.4838	0.005533
486.3715	0.018489
489.2612	0.005850
492.1529	0.005913
495.0466	0.004246
497.9423	0.004436
500.8400	0.003044
503.7397	0.003529
506.6414	0.004141
509.5450	0.003550
512.4506	0.002368
515.3582	0.003381
518.2677	0.002411
521.1792	0.003719
524.0927	0.004331
527.0081	0.004352
529.9254	0.005533
532.8447	0.005681
535.7659	0.008255
538.6890	0.008340
541.6140	0.011357
544.5410	0.013214
547.4699	0.017138
550.4007	0.016969
553.3333	0.023890
556.2679	0.028511
559.2044	0.024375
562.1427	0.035347
565.0829	0.040453
568.0250	0.058388
570.9690	0.111875
573.9149	0.153927
576.8626	0.184521
579.8121	0.208469
582.7635	0.267358
585.7167	0.238790
588.6718	0.198975
591.6288	0.136077
594.5875	0.175638
597.5481	0.157134
600.5105	0.188425
603.4747	0.193046
606.4407	0.162852
609.4085	0.137364
612.3781	0.132215
615.3495	0.130527
618.3227	0.109871
621.2977	0.075268
624.2745	0.088835
627.2530	0.071892
630.2333	0.063009
633.2154	0.045791
636.1992	0.043766
639.1848	0.042331
642.1721	0.030915
645.1612	0.027200
648.1520	0.030535
651.1445	0.029320
654.1388	0.035244
657.1348	0.878051
660.1325	0.062015
663.1319	0.021194
666.1330	0.024353
669.1359	0.020029
672.1404	0.031697
675.1466	0.027540
678.1545	0.030726
681.1641	0.034102
684.1754	0.032351
687.1883	0.044800
690.2029	0.033617
693.2192	0.038744
696.2371	0.029144
699.2567	0.037795
702.2779	0.030579
705.3008	0.023489
708.3253	0.038491
711.3514	0.033005
714.3791	0.035242
717.4085	0.025894
720.4395	0.028321
723.4721	0.028975
726.5063	0.033068
729.5421	0.035558
732.5795	0.039757
735.6185	0.049442
738.6591	0.041150
741.7013	0.035347
744.7450	0.028215
747.7903	0.032731
750.8372	0.039926
753.8856	0.042880
756.9356	0.048703
759.9872	0.060709
763.0403	0.049399
766.0949	0.050032
769.1510	0.048133
772.2087	0.042626
775.2679	0.029207
778.3287	0.024481
781.3909	0.033343
784.4547	0.028363
787.5199	0.029925
790.5867	0.025916
793.6550	0.022223
796.7247	0.021991
799.7959	0.023004
802.8686	0.018868
805.9428	0.019628
809.0185	0.023025
812.0956	0.015788
815.1742	0.016590
818.2542	0.015513
821.3357	0.014838
824.4186	0.012053
827.5029	0.015767
830.5887	0.009247
833.6759	0.010428
836.7646	0.007390
839.8546	0.007728
842.9461	0.004774
846.0390	0.007074
849.1333	0.005470
852.2289	0.006166
855.3260	0.013636
858.4245	0.009880
861.5243	0.006989
864.6255	0.006166
867.7281	0.006567
870.8321	0.007538
873.9374	0.004605
877.0441	0.005470
880.1521	0.006462
883.2615	0.005386
886.3722	0.006251
889.4843	0.005934
892.5977	0.005976
895.7124	0.004521
898.8284	0.004795
901.9458	0.003381
905.0644	0.004795
908.1844	0.005597
911.3057	0.004288
914.4283	0.003466
917.5521	0.004394
920.6773	0.004099
923.8037	0.002347
926.9314	0.001229
930.0604	0.002326
933.1906	0.000934
936.3221	0.001651
939.4549	0.002136
942.5889	0.001398
945.7241	0.002326
948.8606	0.001968
951.9983	0.001883
955.1373	-0.000037
958.2775	0.001250
961.4189	0.001567
964.5615	0.002052
967.7053	-0.000100
970.8504	0.000237
973.9966	0.001313
977.1440	0.000997
980.2926	-0.000100
983.4424	0.001778
986.5934	0.000280
989.7456	-0.000058
992.8989	0.001081
996.0534	0.000617
999.2090	0.000702
1002.37	0.000849
1005.52	0.001187
1008.68	0.001208
1011.84	0.000533
1015	0.001482
1018.17	0.000786
1021.33	0.000385
1023.03	0.000870

File: spectrum_2025-06-19_09-56-10.txt
# Wavelength (nm)	Intensity (a.u.)
197.7802	-0.000436
200.4334	-0.000795
203.0892	0.000788
205.7475	0.000556
208.4084	0.001442
211.0718	0.000070
213.7376	0.000049
216.4060	0.000113
219.0769	-0.000584
221.7503	-0.000099
224.4262	0.000303
227.1046	-0.001428
229.7855	0.000683
232.4688	0.000007
235.1546	0.001421
237.8429	0.000176
240.5337	0.000915
243.2269	0.000493
245.9225	0.000366
248.6206	0.000408
251.3212	0.001189
254.0242	0.000197
256.7296	0.000134
259.4375	0.000007
262.1477	-0.000099
264.8604	-0.002209
267.5755	0.001379
270.2931	-0.000478
273.0130	0.001084
275.7353	-0.000162
278.4600	-0.000563
281.1871	-0.000753
283.9166	-0.000690
286.6484	0.000197
289.3827	0.001400
292.1193	0.000936
294.8582	0.001717
297.5995	0.000619
300.3432	0.000113
303.0892	0.000028
305.8376	-0.000626
308.5883	0.000176
311.3413	-0.000310
314.0967	0.000830
316.8543	0.002329
319.6143	-0.000943
322.3766	-0.000943
325.1412	-0.000922
327.9082	-0.001133
330.6774	-0.000077
333.4489	-0.000288
336.2227	-0.001091
338.9987	-0.000394
341.7771	0.001168
344.5577	-0.000183
347.3406	-0.000288
350.1257	0.000408
352.9131	-0.000795
355.7027	-0.000225
358.4946	0.001084
361.2888	-0.000795
364.0851	-0.000584
366.8837	0.000830
369.6845	0.000197
372.4876	0.000661
375.2928	0.000155
378.1003	0.000577
380.9100	0.001063
383.7219	-0.000077
386.5359	0.002540
389.3522	0.003765
392.1706	0.006445
394.9912	0.008092
397.8140	0.014509
400.6390	0.019449
403.4661	0.020736
406.2954	0.024494
409.1269	0.025908
411.9605	0.028927
414.7962	0.026520
417.6341	0.028399
420.4741	0.033465
423.3162	0.034901
426.1605	0.028906
429.0068	0.030383
431.8553	0.031967
434.7059	0.031903
437.5586	0.029581
440.4135	0.029075
443.2703	0.032663
446.1293	0.029729
448.9904	0.029433
451.8535	0.024452
454.7188	0.019470
457.5860	0.019554
460.4554	0.017380
463.3268	0.016409
466.2003	0.016430
469.0758	0.011554
471.9533	0.009886
474.8329	0.009907
477.7145	0.006656
480.5982	0.007902
483.4838	0.005305
486.3715	0.015902
489.2612	0.004334
492.1529	0.003638
495.0466	0.002941
497.9423	0.003807
500.8400	0.003026
503.7397	0.002118
506.6414	0.004398
509.5450	0.001210
512.4506	0.002287
515.3582	0.002878
518.2677	0.004229
521.1792	0.003722
524.0927	0.004503
527.0081	0.003786
529.9254	0.005601
532.8447	0.005981
535.7659	0.007965
538.6890	0.008451
541.6140	0.012525
544.5410	0.014699
547.4699	0.018457
550.4007	0.018900
553.3333	0.021053
556.2679	0.024916
559.2044	0.025718
562.1427	0.036210
565.0829	0.040558
568.0250	0.058438
570.9690	0.113428
573.9149	0.157947
576.8626	0.185368
579.8121	0.212958
582.7635	0.264613
585.7167	0.237635
588.6718	0.202467
591.6288	0.135972
594.5875	0.172787
597.5481	0.152839
600.5105	0.184946
603.4747	0.188577
606.4407	0.166138
609.4085	0.135403
612.3781	0.129133
615.3495	0.130547
618.3227	0.111697
621.2977	0.074586
624.2745	0.088476
627.2530	0.070766
630.2333	0.060675
633.2154	0.047271
636.1992	0.045202
639.1848	0.042141
642.1721	0.032144
645.1612	0.028987
648.1520	0.029102
651.1445	0.030315
654.1388	0.033854
657.1348	0.873034
660.1325	0.059965
663.1319	0.021121
666.1330	0.023442
669.1359	0.020905
672.1404	0.034373
675.1466	0.028251
678.1545	0.028399
681.1641	0.034352
684.1754	0.032178
687.1883	0.043936
690.2029	0.034141
693.2192	0.038511
696.2371	0.030383
699.2567	0.038194
702.2779	0.029898
705.3008	0.026563
708.3253	0.039418
711.3514	0.032431
714.3791	0.035555
717.4085	0.028230
720.4395	0.028674
723.4721	0.028842
726.5063	0.032558
729.5421	0.036632
732.5795	0.043302
735.6185	0.047651
738.6591	0.040854
741.7013	0.034373
744.7450	0.028990
747.7903	0.031143
750.8372	0.038384
753.8856	0.044400
756.9356	0.050860
759.9872	0.061098
763.0403	0.049804
766.0949	0.051049
769.1510	0.050543
772.2087	0.038278
775.2679	0.032030
778.3287	0.025782
781.3909	0.034901
784.4547	0.031650
787.5199	0.030172
790.5867	0.025570
793.6550	0.023903
796.7247	0.021264
799.7959	0.021560
802.8686	0.016451
805.9428	0.019723
809.0185	0.021813
812.0956	0.018351
815.1742	0.016958
818.2542	0.015142
821.3357	0.014615
824.4186	0.010414
827.5029	0.015079
830.5887	0.010646
833.6759	0.010140
836.7646	0.008176
839.8546	0.008176
842.9461	0.005474
846.0390	0.007079
849.1333	0.004482
852.2289	0.006340
855.3260	0.012989
858.4245	0.009527
861.5243	0.006023
864.6255	0.005327
867.7281	0.004567
870.8321	0.006213
873.9374	0.004651
877.0441	0.006277
880.1521	0.007079
883.2615	0.007058
886.3722	0.007712
889.4843	0.003828
892.5977	0.006403
895.7124	0.005137
898.8284	0.004926
901.9458	0.003511
905.0644	0.005875
908.1844	0.003849
911.3057	0.004187
914.4283	0.002477
917.5521	0.004503
920.6773	0.002540
923.8037	0.001632
926.9314	0.001421
930.0604	0.003216
933.1906	0.001379
936.3221	0.001442
939.4549	0.002076
942.5889	0.001379
945.7241	0.001020
948.8606	0.001316
951.9983	0.001105
955.1373	-0.000014
958.2775	0.000239
961.4189	-0.000563
964.5615	0.001421
967.7053	-0.001639
970.8504	0.002012
973.9966	-0.000373
977.1440	0.001210
980.2926	0.000091
983.4424	0.000535
986.5934	-0.000626
989.7456	-0.000500
992.8989	-0.000732
996.0534	0.000598
999.2090	-0.000415
1002.37	0.000113
1005.52	-0.000964
1008.68	0.000239
1011.84	0.000640
1015	-0.000225
1018.17	0.000535
1021.33	-0.001027
1023.03	-0.000014