Folder: Auto_Polymerization

Note: nmr_summary.txt
NMR Analysis Summary
============================================================
Group: 0.2M_MMA,0.1M_Anisol_16scans_no_deutero_DMSO
------------------------------------------------------------
Filename: 0.2M_MMA,0.1M_Anisol_16scans_no_deutero_DMSO_test
  Baseline noise std: 5.4747
  Monomer integral: 53.0851 (method: simpson + simpson)
  Std integral: 30.3415 (method: simpson)
  Integral ratio (Monomer/Std): 1.7495856083435541
----------------------------------------
Filename: 0.2M_MMA,0.1M_Anisol_16scans_no_deutero_DMSO_test_2
  Baseline noise std: 5.8964
  Monomer integral: 29.0871 (method: none + simpson)
  Std integral: 31.9769 (method: simpson)
  Integral ratio (Monomer/Std): 0.9096271392753994
----------------------------------------

Group: 0.2M_MMA,0.1M_Anisol_1scan_no_deutero_DMSO
------------------------------------------------------------
Filename: 0.2M_MMA,0.1M_Anisol_1scan_no_deutero_DMSO_test
  Baseline noise std: 18.7658
  Monomer integral: 85.6485 (method: simpson + simpson)
  Std integral: 29.8762 (method: simpson)
  Integral ratio (Monomer/Std): 2.8667834612303973
----------------------------------------

Group: 0.2M_MMA,0.1M_Anisol_1scans_no_deutero_DMSO_tes_2t
------------------------------------------------------------
Filename: 0.2M_MMA,0.1M_Anisol_1scans_no_deutero_DMSO_tes_2t
  Baseline noise std: 34.4233
  Monomer integral: 64.7983 (method: simpson + simpson)
  Std integral: 6.1069 (method: simpson)
  Integral ratio (Monomer/Std): 10.610755696423173
----------------------------------------

Group: 0.2M_MMA,0.1M_Anisol_32scans_no_deutero_DMSO
------------------------------------------------------------
Filename: 0.2M_MMA,0.1M_Anisol_32scans_no_deutero_DMSO_test
  Baseline noise std: 4.3591
  Monomer integral: 51.0159 (method: simpson + simpson)
  Std integral: 0.0000 (method: none)
  Integral ratio (Monomer/Std): None
----------------------------------------
Filename: 0.2M_MMA,0.1M_Anisol_32scans_no_deutero_DMSO_test_2
  Baseline noise std: 3.4342
  Monomer integral: 31.9946 (method: simpson + simpson)
  Std integral: 22.1186 (method: simpson)
  Integral ratio (Monomer/Std): 1.446502489713666
----------------------------------------

Group: 0.2M_MMA,0.1M_Anisol_64scans_no_deutero_DMSO
------------------------------------------------------------
Filename: 0.2M_MMA,0.1M_Anisol_64scans_no_deutero_DMSO_test
  Baseline noise std: 2.3765
  Monomer integral: 0.0000 (method: none + none)
  Std integral: 0.0000 (method: none)
  Integral ratio (Monomer/Std): None
----------------------------------------
Filename: 0.2M_MMA,0.1M_Anisol_64scans_no_deutero_DMSO_test_2
  Baseline noise std: 2.4848
  Monomer integral: 0.0000 (method: none + none)
  Std integral: 0.0000 (method: none)
  Integral ratio (Monomer/Std): None
----------------------------------------

Group: 0.2M_MMA,0.2M_Anisol_16scans_no_deutero_DMSO
------------------------------------------------------------
Filename: 0.2M_MMA,0.2M_Anisol_16scans_no_deutero_DMSO_test
  Bas

Note: README.md
# Auto_Polymerization

[![Python 3.10](https://img.shields.io/badge/python-3.10-blue.svg)](https://www.python.org/downloads/)
[![License: MIT](https://img.shields.io/badge/License-MIT-yellow.svg)](https://opensource.org/licenses/MIT)

This repository contains the **Auto_Polymerization platform** for automated polymer synthesis and characterization.

## ğŸš€ Quick Start

### Device Testing

For testing real devices in your Auto_Polymerization platform, see the demo folder:

```bash
cd Auto_Polymerization/demo
python demo_device_test.py
```

This will guide you through testing individual devices with safe parameters.

For comprehensive device testing:

```bash
cd Auto_Polymerization/demo
python device_test_controller.py
```

ğŸ“– See [`Auto_Polymerization/demo/DEVICE_TESTING_README.md`](Auto_Polymerization/demo/DEVICE_TESTING_README.md) for detailed documentation.

## ğŸ“¦ Required Packages and Setup

### ğŸ”§ Hardware Drivers

Install drivers for the devices used in this project:

- **[Thorlabs CCS200 Spectrometer](https://www.thorlabs.com/thorproduct.cfm?partnumber=CCS200#ad-image-0)** - UV-VIS spectroscopy
- **[Thorlabs upLED Controller](https://www.thorlabs.com/thorproduct.cfm?partnumber=UPLED)** - LED control

### ğŸ Python Environment

**Python Version:** 3.10

Install the linear actuator and valves control package from the local source in editable mode:

```bash
pip install -e src/linear_actuator_and_valves/
```

### ğŸ“š Core Dependencies

```bash
pip install scipy numpy pandas matplotlib pyserial nmrglue requests pyyaml medusa-sdl
```

### ğŸ”¬ MatterLab Packages

Install from [MatterLab devices repository](https://gitlab.com/aspuru-guzik-group/self-driving-lab/devices):

#### Easy Installation (if available):
```bash
pip install matterlab_hotplates
pip install matterlab_pumps
pip install matterlab_serial_device
```

#### Manual Installation:

**Hotplates, Pumps, Serial Device:**

https://gitlab.com/aspuru-guzik-group/self-driving-lab/devices



**Spectrometers:**

- **NMR (Nanalysis Benchtop):**

  git clone https://gitlab.com/aspuru-guzik-group/self-driving-lab/devices/nmr
  cd nmr
  git checkout develop
  pip install -e .


- **UV-VIS (Thorlabs CCS200):**

  git clone https://gitlab.com/aspuru-guzik-group/self-driving-lab/devices/spectrometer
  cd spectrometer
  git checkout develop
  pip install -e .


> **Note:** If access is not public, contact Han Hao at University of Toronto.

### âš™ï¸ Configuration

**CSS200 Spectrometer DLL:**
Potentially you need to update the `DLL_FILE` value in `ccs_spectrometer.py` in the matterlab package:
The correct file path is typically: 
DLL_FILE = Path(r"C:\Program Files\IVI Foundation\VISA\Win64\Bin\TLCCS_64.dll")
#

**Arduino Setup:**
1. Install Arduino IDE on your PC
2. Upload the Arduino code from `users/setup/` to your Arduino board
3. An overview of the hardware connections of the GPIO pins is given in "Arduino_contacts_overview_2025_06_27_bb.jpg"
## âš ï¸ Important Notes



## ğŸ“ Project Struc

File: MRG-061-G-1_after_aminolysis_spectrum_2025-06-20_14-42-59.txt
# Wavelength (nm)	Intensity (a.u.)
197.7802	0.001170
200.4334	0.000116
203.0892	-0.000200
205.7475	0.000179
208.4084	0.000411
211.0718	-0.000179
213.7376	0.000959
216.4060	-0.000032
219.0769	0.001275
221.7503	0.001465
224.4262	0.000580
227.1046	-0.000643
229.7855	0.002245
232.4688	0.000411
235.1546	0.001254
237.8429	-0.001254
240.5337	0.000685
243.2269	-0.000137
245.9225	0.000474
248.6206	0.000390
251.3212	0.001592
254.0242	0.000833
256.7296	0.000601
259.4375	-0.001212
262.1477	-0.000011
264.8604	0.000917
267.5755	0.000875
270.2931	0.000327
273.0130	0.000032
275.7353	0.001444
278.4600	-0.000221
281.1871	-0.000306
283.9166	0.000369
286.6484	0.001360
289.3827	0.000538
292.1193	-0.000833
294.8582	0.001107
297.5995	-0.000095
300.3432	0.001697
303.0892	-0.000453
305.8376	0.000791
308.5883	-0.000348
311.3413	0.001571
314.0967	-0.000116
316.8543	0.000411
319.6143	-0.000685
322.3766	0.001423
325.1412	-0.000411
327.9082	-0.000137
330.6774	0.000601
333.4489	0.000685
336.2227	-0.000285
338.9987	0.001254
341.7771	-0.000179
344.5577	-0.000622
347.3406	0.000221
350.1257	0.000938
352.9131	0.000011
355.7027	0.000601
358.4946	0.000854
361.2888	0.001001
364.0851	0.000917
366.8837	-0.000116
369.6845	-0.001254
372.4876	0.001065
375.2928	0.000664
378.1003	0.000770
380.9100	0.001023
383.7219	0.001929
386.5359	0.000348
389.3522	-0.000095
392.1706	0.000748
394.9912	0.000622
397.8140	0.000095
400.6390	0.002456
403.4661	0.000917
406.2954	-0.000390
409.1269	0.000432
411.9605	0.000938
414.7962	0.002372
417.6341	0.001275
420.4741	0.001887
423.3162	0.005091
426.1605	0.006188
429.0068	0.006124
431.8553	0.009519
434.7059	0.011543
437.5586	0.013714
440.4135	0.015190
443.2703	0.018226
446.1293	0.020967
448.9904	0.023686
451.8535	0.022569
454.7188	0.020608
457.5860	0.024635
460.4554	0.028472
463.3268	0.025520
466.2003	0.032436
469.0758	0.024150
471.9533	0.023497
474.8329	0.023391
477.7145	0.024551
480.5982	0.029716
483.4838	0.028514
486.3715	0.113498
489.2612	0.032183
492.1529	0.028535
495.0466	0.029336
497.9423	0.028641
500.8400	0.029927
503.7397	0.029948
506.6414	0.029948
509.5450	0.028599
512.4506	0.025795
515.3582	0.023855
518.2677	0.024003
521.1792	0.023623
524.0927	0.020313
527.0081	0.023876
529.9254	0.021936
532.8447	0.021325
535.7659	0.026048
538.6890	0.024762
541.6140	0.027207
544.5410	0.029336
547.4699	0.030475
550.4007	0.029379
553.3333	0.029041
556.2679	0.033448
559.2044	0.028662
562.1427	0.035577
565.0829	0.038254
568.0250	0.049238
570.9690	0.086281
573.9149	0.120097
576.8626	0.130786
579.8121	0.148833
582.7635	0.197828
585.7167	0.164750
588.6718	0.136605
591.6288	0.086850
594.5875	0.114447
597.5481	0.097349
600.5105	0.118579
603.4747	0.124524
606.4407	0.110483
609.4085	0.089717
612.3781	0.086344
615.3495	0.081453
618.3227	0.073568
621.2977	0.051347
624.2745	0.055816
627.2530	0.042998
630.2333	0.039077
633.2154	0.030053
636.1992	0.027818
639.1848	0.027418
642.1721	0.021288
645.1612	0.016969
648.1520	0.017972
651.1445	0.018751
654.1388	0.021461
657.1348	0.711919
660.1325	0.045346
663.1319	0.014644
666.1330	0.014544
669.1359	0.014600
672.1404	0.019617
675.1466	0.016539
678.1545	0.018226
681.1641	0.020229
684.1754	0.021367
687.1883	0.028788
690.2029	0.022611
693.2192	0.025563
696.2371	0.019322
699.2567	0.023138
702.2779	0.019870
705.3008	0.015759
708.3253	0.026532
711.3514	0.022358
714.3791	0.023433
717.4085	0.018922
720.4395	0.019470
723.4721	0.019006
726.5063	0.020735
729.5421	0.024192
732.5795	0.026448
735.6185	0.030665
738.6591	0.026722
741.7013	0.022400
744.7450	0.018648
747.7903	0.022442
750.8372	0.027587
753.8856	0.027565
756.9356	0.032878
759.9872	0.039351
763.0403	0.031318
766.0949	0.034649
769.1510	0.030960
772.2087	0.028999
775.2679	0.020081
778.3287	0.016518
781.3909	0.023159
784.4547	0.020819
787.5199	0.018437
790.5867	0.018268
793.6550	0.013440
796.7247	0.016645
799.7959	0.015591
802.8686	0.011311
805.9428	0.011901
809.0185	0.015253
812.0956	0.010678
815.1742	0.012766
818.2542	0.010573
821.3357	0.009751
824.4186	0.007980
827.5029	0.009856
830.5887	0.008127
833.6759	0.007031
836.7646	0.006905
839.8546	0.005766
842.9461	0.004649
846.0390	0.003489
849.1333	0.004122
852.2289	0.003637
855.3260	0.009097
858.4245	0.007642
861.5243	0.004396
864.6255	0.004712
867.7281	0.003721
870.8321	0.003215
873.9374	0.003911
877.0441	0.004607
880.1521	0.005155
883.2615	0.005492
886.3722	0.005724
889.4843	0.004838
892.5977	0.002562
895.7124	0.002140
898.8284	0.003004
901.9458	0.002562
905.0644	0.002498
908.1844	0.004396
911.3057	0.002962
914.4283	0.003974
917.5521	0.003089
920.6773	0.002709
923.8037	0.001275
926.9314	0.001887
930.0604	0.001191
933.1906	0.003299
936.3221	0.001676
939.4549	0.001149
942.5889	0.001824
945.7241	0.000980
948.8606	0.001465
951.9983	0.002519
955.1373	0.001971
958.2775	0.001845
961.4189	0.001001
964.5615	0.000580
967.7053	0.001465
970.8504	0.000053
973.9966	0.001634
977.1440	0.001465
980.2926	0.002013
983.4424	0.001845
986.5934	0.001233
989.7456	0.000242
992.8989	0.000580
996.0534	0.000580
999.2090	0.002034
1002.37	0.002456
1005.52	0.000517
1008.68	0.001297
1011.84	-0.000390
1015	0.000179
1018.17	0.001086
1021.33	0.001381
1023.03	-0.000474

File: MRG-061-G-2_after_aminolysis_spectrum_2025-06-20_14-49-03.txt
# Wavelength (nm)	Intensity (a.u.)
197.7802	-0.000040
200.4334	-0.001222
203.0892	0.001541
205.7475	-0.000230
208.4084	-0.000694
211.0718	-0.000399
213.7376	0.000297
216.4060	-0.000083
219.0769	-0.000504
221.7503	-0.000294
224.4262	-0.000104
227.1046	-0.000167
229.7855	-0.000736
232.4688	-0.000315
235.1546	0.000592
237.8429	-0.001390
240.5337	0.000213
243.2269	0.000065
245.9225	0.001373
248.6206	0.000149
251.3212	0.000255
254.0242	0.000276
256.7296	0.000424
259.4375	0.000592
262.1477	0.000824
264.8604	-0.001074
267.5755	0.001331
270.2931	0.000213
273.0130	0.000571
275.7353	0.000845
278.4600	-0.000294
281.1871	0.000402
283.9166	0.001668
286.6484	-0.000167
289.3827	-0.000104
292.1193	-0.000905
294.8582	0.000571
297.5995	0.000065
300.3432	-0.001095
303.0892	0.001710
305.8376	0.000297
308.5883	-0.000800
311.3413	0.000930
314.0967	-0.000884
316.8543	0.000318
319.6143	-0.000125
322.3766	0.000635
325.1412	-0.000547
327.9082	0.000360
330.6774	0.000318
333.4489	-0.000694
336.2227	0.000571
338.9987	0.000255
341.7771	0.001099
344.5577	-0.000631
347.3406	-0.000441
350.1257	0.000402
352.9131	-0.000294
355.7027	0.000993
358.4946	0.000402
361.2888	0.000023
364.0851	0.000170
366.8837	0.001246
369.6845	-0.000990
372.4876	0.000698
375.2928	-0.000188
378.1003	0.000360
380.9100	-0.001285
383.7219	0.001942
386.5359	0.000930
389.3522	-0.000062
392.1706	0.001563
394.9912	0.000656
397.8140	0.000909
400.6390	0.000402
403.4661	0.001077
406.2954	0.000192
409.1269	0.001331
411.9605	0.001689
414.7962	0.002027
417.6341	0.002533
420.4741	0.002870
423.3162	0.004030
426.1605	0.006245
429.0068	0.006371
431.8553	0.009008
434.7059	0.009388
437.5586	0.010273
440.4135	0.013648
443.2703	0.019090
446.1293	0.019069
448.9904	0.021325
451.8535	0.020250
454.7188	0.023350
457.5860	0.024489
460.4554	0.027358
463.3268	0.024679
466.2003	0.031028
469.0758	0.025227
471.9533	0.023709
474.8329	0.027526
477.7145	0.027864
480.5982	0.031745
483.4838	0.030880
486.3715	0.114677
489.2612	0.032356
492.1529	0.028497
495.0466	0.032757
497.9423	0.031091
500.8400	0.031365
503.7397	0.032841
506.6414	0.032736
509.5450	0.028918
512.4506	0.027168
515.3582	0.026261
518.2677	0.026809
521.1792	0.022971
524.0927	0.022823
527.0081	0.025417
529.9254	0.023540
532.8447	0.024637
535.7659	0.028412
538.6890	0.029319
541.6140	0.028244
544.5410	0.033601
547.4699	0.031281
550.4007	0.030753
553.3333	0.031513
556.2679	0.036680
559.2044	0.029889
562.1427	0.037693
565.0829	0.040202
568.0250	0.052415
570.9690	0.096728
573.9149	0.126636
576.8626	0.138152
579.8121	0.158949
582.7635	0.215938
585.7167	0.178015
588.6718	0.146357
591.6288	0.092784
594.5875	0.122312
597.5481	0.108561
600.5105	0.129737
603.4747	0.125750
606.4407	0.122017
609.4085	0.094197
612.3781	0.093628
615.3495	0.088587
618.3227	0.077725
621.2977	0.055156
624.2745	0.061020
627.2530	0.049694
630.2333	0.042670
633.2154	0.032251
636.1992	0.030479
639.1848	0.028792
642.1721	0.024478
645.1612	0.020261
648.1520	0.018870
651.1445	0.020389
654.1388	0.023762
657.1348	0.774288
660.1325	0.046757
663.1319	0.016198
666.1330	0.015864
669.1359	0.015167
672.1404	0.021072
675.1466	0.020271
678.1545	0.021684
681.1641	0.023962
684.1754	0.024152
687.1883	0.032272
690.2029	0.025565
693.2192	0.027252
696.2371	0.020988
699.2567	0.025544
702.2779	0.020967
705.3008	0.016263
708.3253	0.026809
711.3514	0.021368
714.3791	0.025417
717.4085	0.019976
720.4395	0.019533
723.4721	0.021115
726.5063	0.024194
729.5421	0.027801
732.5795	0.029741
735.6185	0.035921
738.6591	0.030859
741.7013	0.024679
744.7450	0.022570
747.7903	0.025164
750.8372	0.029699
753.8856	0.030100
756.9356	0.038832
759.9872	0.043936
763.0403	0.039042
766.0949	0.038578
769.1510	0.036870
772.2087	0.030142
775.2679	0.020714
778.3287	0.018837
781.3909	0.025270
784.4547	0.023941
787.5199	0.019343
790.5867	0.018921
793.6550	0.016179
796.7247	0.018246
799.7959	0.016601
802.8686	0.013922
805.9428	0.014660
809.0185	0.018098
812.0956	0.011876
815.1742	0.012361
818.2542	0.011033
821.3357	0.012509
824.4186	0.008460
827.5029	0.009029
830.5887	0.010653
833.6759	0.006561
836.7646	0.006646
839.8546	0.005465
842.9461	0.003524
846.0390	0.005507
849.1333	0.002955
852.2289	0.003777
855.3260	0.010505
858.4245	0.005781
861.5243	0.005549
864.6255	0.003039
867.7281	0.004937
870.8321	0.003756
873.9374	0.003566
877.0441	0.004642
880.1521	0.006013
883.2615	0.005465
886.3722	0.004979
889.4843	0.002723
892.5977	0.003798
895.7124	0.004094
898.8284	0.003461
901.9458	0.003967
905.0644	0.003608
908.1844	0.003271
911.3057	0.001499
914.4283	0.003587
917.5521	0.002744
920.6773	0.001689
923.8037	0.001837
926.9314	0.002512
930.0604	0.000508
933.1906	0.001162
936.3221	0.002216
939.4549	0.001056
942.5889	0.002090
945.7241	0.002364
948.8606	0.000424
951.9983	0.000466
955.1373	0.001373
958.2775	0.000782
961.4189	0.000592
964.5615	0.000318
967.7053	-0.000062
970.8504	-0.000357
973.9966	-0.000040
977.1440	0.000529
980.2926	0.000466
983.4424	0.000782
986.5934	0.000761
989.7456	0.000065
992.8989	0.001120
996.0534	-0.000800
999.2090	0.000424
1002.37	0.000318
1005.52	-0.000483
1008.68	0.001499
1011.84	0.000719
1015	0.000213
1018.17	0.000613
1021.33	0.000677
1023.03	-0.000019

File: MRG-061-G-2_after_aminolysis_spectrum_2025-06-20_14-49-16.txt
# Wavelength (nm)	Intensity (a.u.)
197.7802	0.000315
200.4334	-0.000149
203.0892	0.000884
205.7475	-0.000128
208.4084	-0.000571
211.0718	0.000757
213.7376	0.000863
216.4060	0.000989
219.0769	0.001791
221.7503	0.000462
224.4262	0.000989
227.1046	-0.000719
229.7855	-0.000951
232.4688	0.000610
235.1546	-0.000192
237.8429	-0.000065
240.5337	0.000547
243.2269	0.000652
245.9225	-0.001056
248.6206	0.000736
251.3212	0.000083
254.0242	0.000399
256.7296	0.000968
259.4375	-0.000318
262.1477	0.000083
264.8604	-0.000424
267.5755	0.000736
270.2931	-0.001162
273.0130	0.000188
275.7353	-0.000255
278.4600	0.000842
281.1871	0.001242
283.9166	0.000652
286.6484	0.000842
289.3827	0.000652
292.1193	-0.000023
294.8582	0.001242
297.5995	0.000315
300.3432	0.001706
303.0892	0.001158
305.8376	-0.000255
308.5883	0.000146
311.3413	0.000378
314.0967	0.000673
316.8543	0.000167
319.6143	0.000104
322.3766	0.000315
325.1412	-0.000402
327.9082	-0.000213
330.6774	0.000547
333.4489	0.001348
336.2227	0.000146
338.9987	0.000757
341.7771	0.000736
344.5577	0.002170
347.3406	0.001285
350.1257	-0.000149
352.9131	0.001011
355.7027	0.001095
358.4946	-0.000550
361.2888	0.000968
364.0851	-0.000297
366.8837	0.000863
369.6845	0.001580
372.4876	0.001032
375.2928	-0.000424
378.1003	0.000757
380.9100	-0.000529
383.7219	0.001179
386.5359	-0.000824
389.3522	0.000504
392.1706	0.000568
394.9912	-0.000571
397.8140	0.000272
400.6390	0.001559
403.4661	0.001517
406.2954	-0.000065
409.1269	0.000863
411.9605	0.001875
414.7962	0.001981
417.6341	0.002318
420.4741	0.004237
423.3162	0.004279
426.1605	0.004870
429.0068	0.007569
431.8553	0.009045
434.7059	0.009657
437.5586	0.011429
440.4135	0.014465
443.2703	0.019379
446.1293	0.021678
448.9904	0.021003
451.8535	0.022500
454.7188	0.021003
457.5860	0.025158
460.4554	0.028890
463.3268	0.024145
466.2003	0.031611
469.0758	0.027372
471.9533	0.025769
474.8329	0.026507
477.7145	0.025579
480.5982	0.033741
483.4838	0.032011
486.3715	0.119341
489.2612	0.033256
492.1529	0.031168
495.0466	0.032096
497.9423	0.031231
500.8400	0.030704
503.7397	0.034711
506.6414	0.031147
509.5450	0.029671
512.4506	0.028321
515.3582	0.027372
518.2677	0.025179
521.1792	0.023006
524.0927	0.024567
527.0081	0.023723
529.9254	0.024820
532.8447	0.025896
535.7659	0.028532
538.6890	0.029607
541.6140	0.030303
544.5410	0.033467
547.4699	0.029481
550.4007	0.031885
553.3333	0.034858
556.2679	0.033530
559.2044	0.029713
562.1427	0.039456
565.0829	0.040658
568.0250	0.050359
570.9690	0.096881
573.9149	0.128431
576.8626	0.141126
579.8121	0.156796
582.7635	0.221961
585.7167	0.178074
588.6718	0.149225
591.6288	0.094941
594.5875	0.126554
597.5481	0.108248
600.5105	0.136107
603.4747	0.126680
606.4407	0.121113
609.4085	0.099518
612.3781	0.093001
615.3495	0.087750
618.3227	0.077922
621.2977	0.057065
624.2745	0.062232
627.2530	0.049051
630.2333	0.044117
633.2154	0.032982
636.1992	0.029966
639.1848	0.030620
642.1721	0.022451
645.1612	0.018619
648.1520	0.019478
651.1445	0.021021
654.1388	0.023309
657.1348	0.772797
660.1325	0.048508
663.1319	0.015288
666.1330	0.018837
669.1359	0.014360
672.1404	0.021615
675.1466	0.020412
678.1545	0.021361
681.1641	0.023787
684.1754	0.022669
687.1883	0.032433
690.2029	0.024567
693.2192	0.030071
696.2371	0.021762
699.2567	0.026170
702.2779	0.020813
705.3008	0.019611
708.3253	0.029544
711.3514	0.023723
714.3791	0.027034
717.4085	0.021298
720.4395	0.023323
723.4721	0.021277
726.5063	0.025938
729.5421	0.026507
732.5795	0.031358
735.6185	0.035048
738.6591	0.031147
741.7013	0.025579
744.7450	0.022627
747.7903	0.022100
750.8372	0.030662
753.8856	0.028384
756.9356	0.037410
759.9872	0.044665
763.0403	0.037220
766.0949	0.039772
769.1510	0.035069
772.2087	0.030788
775.2679	0.023238
778.3287	0.019400
781.3909	0.026107
784.4547	0.022922
787.5199	0.020497
790.5867	0.020265
793.6550	0.016996
796.7247	0.017924
799.7959	0.015035
802.8686	0.012167
805.9428	0.014360
809.0185	0.018093
812.0956	0.013327
815.1742	0.012673
818.2542	0.010058
821.3357	0.010733
824.4186	0.009699
827.5029	0.011175
830.5887	0.008813
833.6759	0.005924
836.7646	0.006430
839.8546	0.006451
842.9461	0.004975
846.0390	0.003815
849.1333	0.003288
852.2289	0.003499
855.3260	0.011365
858.4245	0.006937
861.5243	0.004912
864.6255	0.004680
867.7281	0.005123
870.8321	0.004553
873.9374	0.004701
877.0441	0.004912
880.1521	0.006937
883.2615	0.004933
886.3722	0.005671
889.4843	0.003815
892.5977	0.005060
895.7124	0.005249
898.8284	0.005081
901.9458	0.003457
905.0644	0.003858
908.1844	0.002655
911.3057	0.002044
914.4283	0.002170
917.5521	0.003204
920.6773	0.003520
923.8037	0.002339
926.9314	0.003731
930.0604	0.001917
933.1906	0.001643
936.3221	0.001601
939.4549	0.000167
942.5889	0.001285
945.7241	0.000378
948.8606	-0.000360
951.9983	0.000315
955.1373	0.001580
958.2775	-0.000297
961.4189	0.000589
964.5615	0.000757
967.7053	0.001264
970.8504	0.000125
973.9966	0.000547
977.1440	-0.000023
980.2926	0.000230
983.4424	0.001938
986.5934	-0.000402
989.7456	0.000715
992.8989	0.000610
996.0534	0.000040
999.2090	0.000062
1002.37	-0.000782
1005.52	-0.000445
1008.68	0.001791
1011.84	-0.000149
1015	0.000715
1018.17	-0.001668
1021.33	0.000462
1023.03	-0.000044