Folder: Auto_Polymerization (part 4)

File: spectrum_2025-06-19_13-05-47.txt
# Wavelength (nm)	Intensity (a.u.)
197.7802	-0.000697
200.4334	-0.001267
203.0892	0.000676
205.7475	-0.001922
208.4084	-0.000655
211.0718	-0.000275
213.7376	0.001077
216.4060	0.000465
219.0769	0.000992
221.7503	0.000401
224.4262	0.000253
227.1046	0.000929
229.7855	0.000063
232.4688	-0.000401
235.1546	-0.000232
237.8429	0.000190
240.5337	0.000887
243.2269	0.000739
245.9225	-0.000021
248.6206	-0.000655
251.3212	-0.000127
254.0242	-0.000887
256.7296	-0.000232
259.4375	0.000317
262.1477	-0.000148
264.8604	0.000296
267.5755	-0.000275
270.2931	0.000380
273.0130	-0.000148
275.7353	0.000866
278.4600	0.000676
281.1871	0.000317
283.9166	0.000739
286.6484	-0.001246
289.3827	-0.000211
292.1193	0.000338
294.8582	0.000929
297.5995	0.001183
300.3432	0.000845
303.0892	-0.000127
305.8376	0.000950
308.5883	0.000633
311.3413	0.001035
314.0967	-0.000929
316.8543	0.000549
319.6143	-0.000127
322.3766	0.000570
325.1412	0.000992
327.9082	0.000802
330.6774	0.000802
333.4489	0.001584
336.2227	0.000211
338.9987	-0.000084
341.7771	0.000845
344.5577	0.000845
347.3406	-0.001267
350.1257	0.001330
352.9131	0.000063
355.7027	0.000063
358.4946	0.000866
361.2888	-0.000106
364.0851	-0.000317
366.8837	-0.000253
369.6845	-0.000549
372.4876	0.000781
375.2928	0.000000
378.1003	0.000359
380.9100	0.001520
383.7219	-0.000655
386.5359	0.000232
389.3522	0.001204
392.1706	0.002154
394.9912	0.002217
397.8140	0.002112
400.6390	0.002618
403.4661	0.006398
406.2954	0.006926
409.1269	0.005892
411.9605	0.008806
414.7962	0.011276
417.6341	0.011952
420.4741	0.015056
423.3162	0.017083
426.1605	0.016999
429.0068	0.017991
431.8553	0.018350
434.7059	0.020715
437.5586	0.020335
440.4135	0.019955
443.2703	0.023207
446.1293	0.022046
448.9904	0.020568
451.8535	0.019892
454.7188	0.017273
457.5860	0.016450
460.4554	0.017147
463.3268	0.013853
466.2003	0.015056
469.0758	0.011762
471.9533	0.009080
474.8329	0.008531
477.7145	0.006546
480.5982	0.007454
483.4838	0.005427
486.3715	0.018076
489.2612	0.004371
492.1529	0.004308
495.0466	0.003210
497.9423	0.003717
500.8400	0.003062
503.7397	0.003864
506.6414	0.003695
509.5450	0.003949
512.4506	0.003167
515.3582	0.003273
518.2677	0.003695
521.1792	0.002999
524.0927	0.004836
527.0081	0.003885
529.9254	0.003695
532.8447	0.004646
535.7659	0.008510
538.6890	0.007792
541.6140	0.011192
544.5410	0.014043
547.4699	0.015774
550.4007	0.019364
553.3333	0.021011
556.2679	0.026121
559.2044	0.023313
562.1427	0.031020
565.0829	0.037229
568.0250	0.052454
570.9690	0.103873
573.9149	0.147626
576.8626	0.169356
579.8121	0.197969
582.7635	0.245798
585.7167	0.228862
588.6718	0.188466
591.6288	0.124187
594.5875	0.168067
597.5481	0.149316
600.5105	0.176746
603.4747	0.183799
606.4407	0.161373
609.4085	0.132042
612.3781	0.127566
615.3495	0.126045
618.3227	0.105562
621.2977	0.074098
624.2745	0.084530
627.2530	0.070002
630.2333	0.060753
633.2154	0.044852
636.1992	0.042571
639.1848	0.042719
642.1721	0.031722
645.1612	0.026813
648.1520	0.029215
651.1445	0.028209
654.1388	0.034691
657.1348	0.856203
660.1325	0.060892
663.1319	0.022406
666.1330	0.025250
669.1359	0.019111
672.1404	0.031548
675.1466	0.025234
678.1545	0.027304
681.1641	0.033934
684.1754	0.033660
687.1883	0.044788
690.2029	0.033660
693.2192	0.040269
696.2371	0.029394
699.2567	0.035434
702.2779	0.030007
705.3008	0.025192
708.3253	0.035560
711.3514	0.032900
714.3791	0.035708
717.4085	0.027578
720.4395	0.028275
723.4721	0.027536
726.5063	0.032625
729.5421	0.036088
732.5795	0.039910
735.6185	0.049878
738.6591	0.038116
741.7013	0.032646
744.7450	0.030788
747.7903	0.030471
750.8372	0.039594
753.8856	0.041980
756.9356	0.051736
759.9872	0.058873
763.0403	0.048737
766.0949	0.050490
769.1510	0.046013
772.2087	0.040776
775.2679	0.031696
778.3287	0.025150
781.3909	0.035011
784.4547	0.031696
787.5199	0.029057
790.5867	0.025108
793.6550	0.023883
796.7247	0.021877
799.7959	0.020272
802.8686	0.017780
805.9428	0.020272
809.0185	0.023017
812.0956	0.018266
815.1742	0.016408
818.2542	0.014085
821.3357	0.015521
824.4186	0.012501
827.5029	0.014275
830.5887	0.010263
833.6759	0.012036
836.7646	0.008404
839.8546	0.007834
842.9461	0.005617
846.0390	0.007011
849.1333	0.004456
852.2289	0.006588
855.3260	0.012797
858.4245	0.010220
861.5243	0.006610
864.6255	0.006947
867.7281	0.004561
870.8321	0.005807
873.9374	0.005786
877.0441	0.005047
880.1521	0.008024
883.2615	0.006272
886.3722	0.005828
889.4843	0.004434
892.5977	0.005258
895.7124	0.004688
898.8284	0.004878
901.9458	0.004244
905.0644	0.005216
908.1844	0.003801
911.3057	0.004012
914.4283	0.001457
917.5521	0.003738
920.6773	0.003020
923.8037	0.003864
926.9314	0.001014
930.0604	0.003062
933.1906	0.002238
936.3221	0.000718
939.4549	0.001373
942.5889	0.000908
945.7241	0.000338
948.8606	0.000887
951.9983	0.001373
955.1373	0.001584
958.2775	0.001753
961.4189	0.000760
964.5615	0.000296
967.7053	0.001161
970.8504	-0.000021
973.9966	0.000232
977.1440	-0.000232
980.2926	-0.000338
983.4424	-0.000655
986.5934	0.000422
989.7456	0.001035
992.8989	0.000380
996.0534	-0.000824
999.2090	0.000084
1002.37	0.000232
1005.52	-0.000486
1008.68	-0.000929
1011.84	-0.000106
1015	0.001457
1018.17	0.000781
1021.33	0.000063
1023.03	0.000232