Folder: Auto_Polymerization/Auto_Polymerization/Data/UV_VIS_Spectra/MRG-061-F5_spectra_while_stopped_with_alu_foil (part 3)

File: spectrum_2025-06-20_09-52-42.txt
# Wavelength (nm)	Intensity (a.u.)
197.7802	0.000137
200.4334	0.000264
203.0892	0.000264
205.7475	0.000095
208.4084	-0.001065
211.0718	0.000601
213.7376	0.000580
216.4060	-0.000327
219.0769	0.000770
221.7503	0.000833
224.4262	-0.000559
227.1046	0.000137
229.7855	-0.000686
232.4688	0.000622
235.1546	0.000074
237.8429	-0.000369
240.5337	0.001255
243.2269	0.000854
245.9225	0.000095
248.6206	0.000221
251.3212	0.001318
254.0242	0.000137
256.7296	0.000981
259.4375	0.000264
262.1477	0.000833
264.8604	-0.000285
267.5755	-0.000432
270.2931	0.000285
273.0130	0.000875
275.7353	-0.000264
278.4600	0.001297
281.1871	-0.000791
283.9166	0.000749
286.6484	0.000960
289.3827	0.000095
292.1193	0.000875
294.8582	0.000454
297.5995	-0.000264
300.3432	0.000664
303.0892	0.001761
305.8376	0.001044
308.5883	0.001107
311.3413	0.001993
314.0967	0.000643
316.8543	-0.001234
319.6143	0.000095
322.3766	0.001340
325.1412	0.000918
327.9082	0.000918
330.6774	0.000327
333.4489	0.001466
336.2227	0.000116
338.9987	0.001129
341.7771	-0.000770
344.5577	0.001171
347.3406	-0.000095
350.1257	0.000897
352.9131	-0.000221
355.7027	0.001276
358.4946	0.001382
361.2888	0.001023
364.0851	0.001740
366.8837	0.000411
369.6845	0.000221
372.4876	0.001508
375.2928	-0.000221
378.1003	0.001572
380.9100	0.000559
383.7219	0.001065
386.5359	0.001255
389.3522	0.000939
392.1706	0.000707
394.9912	0.002183
397.8140	0.003365
400.6390	0.006761
403.4661	0.005580
406.2954	0.008174
409.1269	0.009735
411.9605	0.009018
414.7962	0.009335
417.6341	0.012752
420.4741	0.015157
423.3162	0.016697
426.1605	0.016001
429.0068	0.014208
431.8553	0.015937
434.7059	0.017984
437.5586	0.018026
440.4135	0.016507
443.2703	0.022118
446.1293	0.019988
448.9904	0.019355
451.8535	0.017751
454.7188	0.013406
457.5860	0.014503
460.4554	0.014651
463.3268	0.012035
466.2003	0.012225
469.0758	0.011085
471.9533	0.005305
474.8329	0.007288
477.7145	0.005580
480.5982	0.004926
483.4838	0.004673
486.3715	0.015136
489.2612	0.003976
492.1529	0.004314
495.0466	0.001930
497.9423	0.003048
500.8400	0.002563
503.7397	0.003723
506.6414	0.003428
509.5450	0.001825
512.4506	0.000728
515.3582	0.001993
518.2677	0.002837
521.1792	0.001424
524.0927	0.003112
527.0081	0.003006
529.9254	0.005242
532.8447	0.003892
535.7659	0.005917
538.6890	0.007225
541.6140	0.009651
544.5410	0.011064
547.4699	0.013891
550.4007	0.015262
553.3333	0.019988
556.2679	0.021844
559.2044	0.020684
562.1427	0.026590
565.0829	0.032919
568.0250	0.044711
570.9690	0.087682
573.9149	0.124809
576.8626	0.142128
579.8121	0.162906
582.7635	0.205392
585.7167	0.187124
588.6718	0.154574
591.6288	0.101731
594.5875	0.138267
597.5481	0.120991
600.5105	0.148583
603.4747	0.152971
606.4407	0.132530
609.4085	0.105570
612.3781	0.105212
615.3495	0.102532
618.3227	0.085931
621.2977	0.060617
624.2745	0.069540
627.2530	0.056039
630.2333	0.049246
633.2154	0.037138
636.1992	0.036294
639.1848	0.033742
642.1721	0.025469
645.1612	0.021731
648.1520	0.023841
651.1445	0.022678
654.1388	0.026461
657.1348	0.706623
660.1325	0.037629
663.1319	0.018292
666.1330	0.020177
669.1359	0.017562
672.1404	0.026105
675.1466	0.021338
678.1545	0.022856
681.1641	0.027877
684.1754	0.027603
687.1883	0.037391
690.2029	0.027540
693.2192	0.031674
696.2371	0.023510
699.2567	0.029776
702.2779	0.023785
705.3008	0.019988
708.3253	0.032518
711.3514	0.024439
714.3791	0.027413
717.4085	0.023848
720.4395	0.022856
723.4721	0.021506
726.5063	0.027202
729.5421	0.030029
732.5795	0.033235
735.6185	0.037792
738.6591	0.034564
741.7013	0.026611
744.7450	0.023468
747.7903	0.025346
750.8372	0.033235
753.8856	0.034417
756.9356	0.043783
759.9872	0.047896
763.0403	0.040513
766.0949	0.040977
769.1510	0.040766
772.2087	0.033446
775.2679	0.024671
778.3287	0.020156
781.3909	0.029438
784.4547	0.026506
787.5199	0.024481
790.5867	0.022878
793.6550	0.019017
796.7247	0.017498
799.7959	0.018764
802.8686	0.015347
805.9428	0.018216
809.0185	0.018469
812.0956	0.013786
815.1742	0.014440
818.2542	0.010664
821.3357	0.011170
824.4186	0.009377
827.5029	0.011655
830.5887	0.006550
833.6759	0.007605
836.7646	0.007225
839.8546	0.006234
842.9461	0.003533
846.0390	0.004651
849.1333	0.003491
852.2289	0.005200
855.3260	0.009799
858.4245	0.006487
861.5243	0.004947
864.6255	0.006719
867.7281	0.003512
870.8321	0.005917
873.9374	0.004082
877.0441	0.004525
880.1521	0.007921
883.2615	0.005242
886.3722	0.005580
889.4843	0.004926
892.5977	0.004419
895.7124	0.003618
898.8284	0.003871
901.9458	0.004082
905.0644	0.006023
908.1844	0.001972
911.3057	0.003069
914.4283	0.002036
917.5521	0.005221
920.6773	0.002479
923.8037	0.003681
926.9314	0.001466
930.0604	0.002226
933.1906	0.001635
936.3221	0.001804
939.4549	0.001993
942.5889	0.001107
945.7241	0.001677
948.8606	0.000686
951.9983	0.001192
955.1373	0.001044
958.2775	0.000707
961.4189	0.000538
964.5615	-0.000158
967.7053	0.000496
970.8504	-0.000306
973.9966	0.000264
977.1440	0.000960
980.2926	0.000833
983.4424	0.000538
986.5934	0.000327
989.7456	-0.000095
992.8989	-0.000812
996.0534	0.000327
999.2090	-0.000137
1002.37	0.000601
1005.52	-0.000116
1008.68	0.000643
1011.84	0.001129
1015	0.000074
1018.17	0.000074
1021.33	0.000158
1023.03	0.000833

File: spectrum_2025-06-20_09-57-49.txt
# Wavelength (nm)	Intensity (a.u.)
197.7802	-0.001354
200.4334	-0.001396
203.0892	-0.001755
205.7475	-0.001185
208.4084	-0.000004
211.0718	-0.000615
213.7376	-0.000215
216.4060	-0.000826
219.0769	-0.000257
221.7503	0.000102
224.4262	-0.000573
227.1046	0.000355
229.7855	0.000313
232.4688	0.000862
235.1546	0.000714
237.8429	0.000334
240.5337	0.000735
243.2269	-0.000721
245.9225	-0.000067
248.6206	0.002064
251.3212	-0.000067
254.0242	-0.000046
256.7296	0.000756
259.4375	0.000018
262.1477	0.001199
264.8604	-0.000890
267.5755	-0.000468
270.2931	-0.000805
273.0130	0.000292
275.7353	-0.000383
278.4600	0.001030
281.1871	0.000883
283.9166	0.000440
286.6484	-0.000320
289.3827	0.000461
292.1193	-0.000658
294.8582	0.000756
297.5995	0.000207
300.3432	-0.000004
303.0892	0.001178
305.8376	-0.000215
308.5883	0.000207
311.3413	0.002064
314.0967	-0.000404
316.8543	0.000123
319.6143	0.000229
322.3766	0.000862
325.1412	0.000271
327.9082	-0.000151
330.6774	0.000102
333.4489	0.000756
336.2227	-0.000742
338.9987	-0.000383
341.7771	0.001009
344.5577	0.000524
347.3406	0.000292
350.1257	-0.000172
352.9131	0.000967
355.7027	-0.000215
358.4946	-0.001860
361.2888	0.000629
364.0851	0.001558
366.8837	0.001262
369.6845	-0.001080
372.4876	0.001347
375.2928	0.001241
378.1003	-0.000004
380.9100	0.001769
383.7219	-0.000088
386.5359	-0.000383
389.3522	0.001283
392.1706	-0.000404
394.9912	0.002317
397.8140	0.002317
400.6390	0.004723
403.4661	0.005820
406.2954	0.008014
409.1269	0.010039
411.9605	0.009997
414.7962	0.010904
417.6341	0.011179
420.4741	0.015989
423.3162	0.014428
426.1605	0.013921
429.0068	0.015377
431.8553	0.017635
434.7059	0.018437
437.5586	0.017614
440.4135	0.020124
443.2703	0.019175
446.1293	0.020082
448.9904	0.018626
451.8535	0.013943
454.7188	0.013753
457.5860	0.012803
460.4554	0.014934
463.3268	0.013267
466.2003	0.012065
469.0758	0.007993
471.9533	0.006453
474.8329	0.006389
477.7145	0.005060
480.5982	0.006832
483.4838	0.004701
486.3715	0.012930
489.2612	0.003710
492.1529	0.003562
495.0466	0.002570
497.9423	0.001705
500.8400	0.002191
503.7397	0.003900
506.6414	0.002739
509.5450	0.002971
512.4506	0.001178
515.3582	0.002360
518.2677	0.001642
521.1792	0.003288
524.0927	0.003583
527.0081	0.003668
529.9254	0.004448
532.8447	0.004617
535.7659	0.006938
538.6890	0.006832
541.6140	0.008035
544.5410	0.010989
547.4699	0.014407
550.4007	0.012972
553.3333	0.016728
556.2679	0.020821
559.2044	0.019956
562.1427	0.026960
565.0829	0.032172
568.0250	0.044261
570.9690	0.087154
573.9149	0.125490
576.8626	0.141061
579.8121	0.163615
582.7635	0.203069
585.7167	0.187520
588.6718	0.157602
591.6288	0.104075
594.5875	0.136356
597.5481	0.118359
600.5105	0.147369
603.4747	0.154036
606.4407	0.131883
609.4085	0.107978
612.3781	0.105531
615.3495	0.104877
618.3227	0.085255
621.2977	0.060296
624.2745	0.069875
627.2530	0.055781
630.2333	0.049093
633.2154	0.036602
636.1992	0.034387
639.1848	0.034598
642.1721	0.025863
645.1612	0.024163
648.1520	0.026025
651.1445	0.023753
654.1388	0.028582
657.1348	0.706006
660.1325	0.040337
663.1319	0.017754
666.1330	0.020061
669.1359	0.016685
672.1404	0.027319
675.1466	0.020757
678.1545	0.024618
681.1641	0.025526
684.1754	0.027889
687.1883	0.035590
690.2029	0.027213
693.2192	0.031243
696.2371	0.023711
699.2567	0.029133
702.2779	0.025800
705.3008	0.019513
708.3253	0.030716
711.3514	0.027003
714.3791	0.028374
717.4085	0.021137
720.4395	0.023458
723.4721	0.024639
726.5063	0.026538
729.5421	0.030990
732.5795	0.034028
735.6185	0.039155
738.6591	0.033248
741.7013	0.029956
744.7450	0.024344
747.7903	0.027783
750.8372	0.033923
753.8856	0.033037
756.9356	0.042088
759.9872	0.049831
763.0403	0.039008
766.0949	0.042341
769.1510	0.039366
772.2087	0.033817
775.2679	0.024724
778.3287	0.019998
781.3909	0.029028
784.4547	0.026918
787.5199	0.025272
790.5867	0.021158
793.6550	0.020525
796.7247	0.020694
799.7959	0.018479
802.8686	0.014533
805.9428	0.017023
809.0185	0.019787
812.0956	0.011896
815.1742	0.013035
818.2542	0.012276
821.3357	0.013668
824.4186	0.006621
827.5029	0.011791
830.5887	0.008330
833.6759	0.006389
836.7646	0.005693
839.8546	0.005651
842.9461	0.004132
846.0390	0.005081
849.1333	0.003604
852.2289	0.005102
855.3260	0.009385
858.4245	0.007993
861.5243	0.005693
864.6255	0.004005
867.7281	0.004216
870.8321	0.003794
873.9374	0.004976
877.0441	0.004301
880.1521	0.007339
883.2615	0.004976
886.3722	0.004723
889.4843	0.004385
892.5977	0.005166
895.7124	0.004195
898.8284	0.003267
901.9458	0.004364
905.0644	0.002191
908.1844	0.004111
911.3057	0.002950
914.4283	0.002043
917.5521	0.004005
920.6773	0.003499
923.8037	0.003309
926.9314	0.002718
930.0604	0.000862
933.1906	0.002402
936.3221	0.001157
939.4549	0.001115
942.5889	0.001579
945.7241	0.001705
948.8606	0.001136
951.9983	-0.000932
955.1373	0.001094
958.2775	0.000840
961.4189	-0.000425
964.5615	0.000883
967.7053	-0.001565
970.8504	-0.000257
973.9966	0.001157
977.1440	-0.000046
980.2926	0.000545
983.4424	-0.000088
986.5934	-0.000046
989.7456	-0.000489
992.8989	0.000461
996.0534	0.002381
999.2090	0.001051
1002.37	0.000714
1005.52	-0.000383
1008.68	-0.000995
1011.84	0.001579
1015	-0.000278
1018.17	0.000039
1021.33	0.000207
1023.03	0.000081

File: spectrum_2025-06-20_10-02-56.txt
# Wavelength (nm)	Intensity (a.u.)
197.7802	-0.000334
200.4334	-0.000609
203.0892	0.000278
205.7475	-0.000419
208.4084	0.000320
211.0718	0.000573
213.7376	0.000890
216.4060	-0.000018
219.0769	0.000130
221.7503	0.000658
224.4262	-0.000946
227.1046	0.000109
229.7855	-0.001938
232.4688	-0.000208
235.1546	-0.000229
237.8429	-0.000714
240.5337	0.001481
243.2269	-0.001221
245.9225	-0.000925
248.6206	-0.001622
251.3212	0.000616
254.0242	-0.000609
256.7296	0.000848
259.4375	-0.001263
262.1477	0.000130
264.8604	-0.001157
267.5755	0.000236
270.2931	0.000215
273.0130	-0.000672
275.7353	-0.000566
278.4600	-0.000334
281.1871	0.001607
283.9166	0.000405
286.6484	0.000763
289.3827	0.000299
292.1193	-0.000081
294.8582	0.000932
297.5995	-0.000503
300.3432	0.001291
303.0892	-0.001305
305.8376	0.000637
308.5883	0.000362
311.3413	-0.000250
314.0967	-0.000144
316.8543	-0.000313
319.6143	0.000320
322.3766	0.000362
325.1412	-0.000165
327.9082	0.001607
330.6774	-0.000186
333.4489	0.001291
336.2227	-0.001178
338.9987	-0.000186
341.7771	-0.000440
344.5577	0.000953
347.3406	-0.000419
350.1257	0.001143
352.9131	-0.000630
355.7027	0.000088
358.4946	0.001080
361.2888	0.000109
364.0851	0.000489
366.8837	0.000299
369.6845	0.000172
372.4876	-0.000123
375.2928	0.000299
378.1003	0.001945
380.9100	0.000890
383.7219	0.000784
386.5359	0.000341
389.3522	0.000130
392.1706	0.000573
394.9912	0.002663
397.8140	0.004267
400.6390	0.004077
403.4661	0.005090
406.2954	0.006061
409.1269	0.006884
411.9605	0.007960
414.7962	0.012202
417.6341	0.012519
420.4741	0.013616
423.3162	0.015663
426.1605	0.013743
429.0068	0.015558
431.8553	0.016613
434.7059	0.016423
437.5586	0.017394
440.4135	0.016550
443.2703	0.021362
446.1293	0.018006
448.9904	0.018681
451.8535	0.014292
454.7188	0.013046
457.5860	0.013996
460.4554	0.013975
463.3268	0.011843
466.2003	0.011274
469.0758	0.008298
471.9533	0.006884
474.8329	0.006293
477.7145	0.005174
480.5982	0.005639
483.4838	0.004436
486.3715	0.012603
489.2612	0.003401
492.1529	0.003233
495.0466	0.002030
497.9423	0.002135
500.8400	0.002916
503.7397	0.002409
506.6414	0.002958
509.5450	0.002283
512.4506	0.002726
515.3582	0.003169
518.2677	0.002810
521.1792	0.002431
524.0927	0.002832
527.0081	0.002473
529.9254	0.004562
532.8447	0.003190
535.7659	0.006609
538.6890	0.006736
541.6140	0.008762
544.5410	0.011464
547.4699	0.013869
550.4007	0.014967
553.3333	0.018069
556.2679	0.020961
559.2044	0.019125
562.1427	0.026258
565.0829	0.031091
568.0250	0.044957
570.9690	0.086956
573.9149	0.119964
576.8626	0.140647
579.8121	0.163736
582.7635	0.205693
585.7167	0.187817
588.6718	0.156117
591.6288	0.103903
594.5875	0.133345
597.5481	0.122455
600.5105	0.144720
603.4747	0.151326
606.4407	0.128892
609.4085	0.106098
612.3781	0.104811
615.3495	0.104051
618.3227	0.087315
621.2977	0.061883
624.2745	0.071212
627.2530	0.056628
630.2333	0.048144
633.2154	0.034974
636.1992	0.034046
639.1848	0.032737
642.1721	0.024410
645.1612	0.022474
648.1520	0.025492
651.1445	0.023001
654.1388	0.026956
657.1348	0.706823
660.1325	0.037618
663.1319	0.017746
666.1330	0.021418
669.1359	0.016740
672.1404	0.025308
675.1466	0.019969
678.1545	0.024464
681.1641	0.026955
684.1754	0.027419
687.1883	0.035228
690.2029	0.027524
693.2192	0.031154
696.2371	0.023915
699.2567	0.027145
702.2779	0.023789
705.3008	0.020328
708.3253	0.030585
711.3514	0.025097
714.3791	0.028516
717.4085	0.020518
720.4395	0.021425
723.4721	0.022396
726.5063	0.028115
729.5421	0.029150
732.5795	0.033328
735.6185	0.038562
738.6591	0.033793
741.7013	0.029994
744.7450	0.025688
747.7903	0.024253
750.8372	0.034046
753.8856	0.036473
756.9356	0.040968
759.9872	0.049052
763.0403	0.040821
766.0949	0.042340
769.1510	0.038351
772.2087	0.033666
775.2679	0.026089
778.3287	0.019483
781.3909	0.028917
784.4547	0.023831
787.5199	0.024084
790.5867	0.019737
793.6550	0.018639
796.7247	0.016972
799.7959	0.017415
802.8686	0.014482
805.9428	0.014714
809.0185	0.017478
812.0956	0.013110
815.1742	0.013701
818.2542	0.012920
821.3357	0.012624
824.4186	0.007960
827.5029	0.011316
830.5887	0.007053
833.6759	0.007496
836.7646	0.006082
839.8546	0.005301
842.9461	0.005111
846.0390	0.005470
849.1333	0.004668
852.2289	0.003824
855.3260	0.011485
858.4245	0.008150
861.5243	0.005364
864.6255	0.003655
867.7281	0.004013
870.8321	0.004583
873.9374	0.004077
877.0441	0.005090
880.1521	0.004752
883.2615	0.005427
886.3722	0.004984
889.4843	0.004710
892.5977	0.002853
895.7124	0.003233
898.8284	0.005702
901.9458	0.003401
905.0644	0.002367
908.1844	0.003549
911.3057	0.002789
914.4283	0.002599
917.5521	0.004161
920.6773	0.002494
923.8037	0.003718
926.9314	0.000721
930.0604	0.002241
933.1906	0.000911
936.3221	0.001101
939.4549	0.002177
942.5889	0.000130
945.7241	0.001143
948.8606	0.000806
951.9983	-0.000144
955.1373	0.000742
958.2775	0.000447
961.4189	-0.000672
964.5615	0.001270
967.7053	-0.000229
970.8504	0.000341
973.9966	0.000278
977.1440	-0.000060
980.2926	-0.000967
983.4424	0.000405
986.5934	-0.001052
989.7456	0.000193
992.8989	-0.000693
996.0534	0.001101
999.2090	0.000405
1002.37	-0.001368
1005.52	-0.000419
1008.68	-0.001221
1011.84	-0.000545
1015	-0.000904
1018.17	0.000468
1021.33	0.000004
1023.03	-0.000735

File: spectrum_2025-06-20_10-02-56_absorbance.txt
# Wavelength	Absorbance
197.78 2.878522
200.433 3.008600
203.089 0.590584
205.748 2.682145
208.408 0.465662
211.072 0.346332
213.738 0.036036
216.406 2.902003
219.077 0.876396
221.75 0.365329
224.426 2.719331
227.105 0.257040
229.786 2.791691
232.469 1.959041
235.155 3.406199
237.843 1.851258
240.534 -3.170555
243.227 2.710117
245.923 3.026125
248.621 2.727541
251.321 -0.053184
254.024 2.872739
256.73 0.097320
259.438 2.975891
262.148 0.875951
264.86 2.662758
267.575 0.426429
270.293 -2.332438
273.013 2.799341
275.735 0.000000
278.46 2.935507
281.187 -3.206016
283.917 0.258832
286.648 0.057992
289.383 0.599145
292.119 3.059185
294.858 0.105401
297.599 2.269513
300.343 0.159520
303.089 2.357935
305.838 0.396984
308.588 0.683584
311.341 3.296446
314.097 2.599883
316.854 3.093772
319.614 0.739869
322.377 0.901738
325.141 3.384174
327.908 0.302379
330.677 3.635484
333.449 0.544308
336.223 3.666237
338.999 3.739731
341.777 3.818094
344.558 0.907736
347.341 3.899164
350.126 0.852525
352.913 3.896857
355.703 2.046965
358.495 0.926571
361.289 2.004716
364.085 1.330638
366.884 1.587962
369.685 1.901446
372.488 4.180183
375.293 1.706658
378.1 0.964346
380.91 1.391748
383.722 1.456126
386.536 1.839218
389.352 2.286439
392.171 1.686873
394.991 1.043640
397.814 0.892947
400.639 0.927969
403.466 0.815792
406.295 0.772925
409.127 0.700607
411.961 0.632872
414.796 0.459507
417.634 0.443910
420.474 0.470889
423.316 0.436762
426.161 0.435498
429.007 0.412305
431.855 0.382783
434.706 0.400382
437.559 0.393483
440.413 0.438287
443.27 0.382612
446.129 0.468662
448.99 0.445004
451.853 0.536775
454.719 0.534801
457.586 0.545122
460.455 0.568223
463.327 0.613353
466.2 0.691361
469.076 0.728312
471.953 0.769260
474.833 0.863551
477.714 0.935732
480.598 0.983214
483.484 1.083023
486.372 1.121047
489.261 1.195226
492.153 1.188556
495.047 1.400466
497.942 1.365260
500.84 1.236755
503.74 1.364821
506.641 1.257128
509.545 1.328782
512.451 1.206681
515.358 1.125439
518.268 1.168137
521.179 1.198184
524.093 1.132362
527.008 1.185713
529.925 0.948053
532.845 1.092531
535.766 0.821963
538.689 0.812546
541.614 0.720296
544.541 0.653625
547.47 0.558035
550.401 0.487765
553.333 0.459295
556.268 0.419874
559.204 0.380296
562.143 0.333585
565.083 0.297496
568.025 0.251030
570.969 0.248100
573.915 0.229915
576.863 0.210387
579.812 0.181413
582.764 0.165012
585.717 0.154173
588.672 0.146623
591.629 0.148521
594.587 0.139858
597.548 0.129592
600.51 0.129408
603.475 0.120493
606.441 0.111293
609.409 0.116554
612.378 0.111500
615.35 0.113981
618.323 0.103231
621.298 0.092850
624.274 0.095478
627.253 0.101257
630.233 0.112830
633.215 0.121038
636.199 0.112215
639.185 0.093541
642.172 0.120666
645.161 0.088173
648.152 0.069500
651.144 0.110044
654.139 0.112928
657.135 0.109290
660.133 0.165314
663.132 0.106830
666.133 0.056273
669.136 0.128716
672.14 0.125672
675.147 0.132997
678.154 0.075947
681.164 0.106890
684.175 0.099075
687.188 0.105223
690.203 0.104009
693.219 0.107546
696.237 0.099882
699.257 0.124454
702.278 0.107026
705.301 0.080664
708.325 0.102505
711.351 0.080155
714.379 0.075866
717.409 0.136973
720.439 0.126431
723.472 0.096988
726.506 0.083778
729.542 0.102411
732.58 0.116568
735.619 0.103664
738.659 0.083342
741.701 0.049447
744.745 0.062529
747.79 0.119066
750.837 0.059822
753.886 0.078351
756.936 0.100070
759.987 0.097087
763.04 0.080056
766.095 0.074160
769.151 0.106605
772.209 0.090417
775.268 0.048494
778.329 0.118499
781.391 0.104647
784.455 0.114891
787.52 0.087135
790.587 0.125565
793.655 0.113823
796.725 0.142645
799.796 0.103960
802.869 0.041769
805.943 0.125786
809.019 0.147754
812.096 0.089870
815.174 0.085235
818.254 0.070467
821.336 0.144587
824.419 0.145348
827.503 0.116099
830.589 0.169785
833.676 0.181198
836.765 0.159596
839.855 0.176555
842.946 0.006327
846.039 0.064513
849.133 0.073908
852.229 0.180685
855.326 0.108101
858.424 0.073730
861.524 0.177116
864.625 0.287391
867.728 0.105122
870.832 0.145640
873.937 0.136760
877.044 -0.020171
880.152 0.277076
883.261 0.046477
886.372 0.132176
889.484 -0.018748
892.598 0.328745
895.712 0.207815
898.828 0.004772
901.946 0.139566
905.064 0.354480
908.184 0.014205
911.306 0.217875
914.428 0.095068
917.552 0.050119
920.677 0.117120
923.804 0.046901
926.931 0.482509
930.06 -0.014182
933.191 0.434232
936.322 0.110501
939.455 0.109610
942.589 1.138910
945.724 0.414856
948.861 0.358955
951.998 3.245019
955.137 -0.030298
958.278 0.176415
961.419 2.653213
964.562 0.149049
967.705 3.152288
970.85 0.177363
973.997 0.550712
977.144 3.192567
980.293 3.008600
983.442 0.003205
986.593 2.820201
989.746 -0.161706
992.899 2.866287
996.053 -0.175500
999.209 -2.607455
1002.37 2.599883
1005.52 3.183555
1008.68 2.691965
1011.84 2.872156
1015 0.000000
1018.17 0.561479
1021.33 -0.602060
1023.03 2.812913

File: spectrum_2025-06-20_10-08-03.txt
# Wavelength (nm)	Intensity (a.u.)
197.7802	0.000987
200.4334	-0.000554
203.0892	0.000881
205.7475	0.000142
208.4084	0.000944
211.0718	0.000290
213.7376	0.001240
216.4060	-0.001124
219.0769	-0.000216
221.7503	0.000058
224.4262	-0.000322
227.1046	0.000037
229.7855	0.000100
232.4688	0.000100
235.1546	0.000691
237.8429	-0.001229
240.5337	-0.001271
243.2269	0.000649
245.9225	0.000121
248.6206	0.000121
251.3212	-0.000723
254.0242	0.000016
256.7296	0.000438
259.4375	-0.002200
262.1477	0.000227
264.8604	-0.000005
267.5755	0.000185
270.2931	0.000586
273.0130	-0.000913
275.7353	0.000311
278.4600	0.000206
281.1871	-0.000659
283.9166	-0.000976
286.6484	0.001324
289.3827	-0.000364
292.1193	0.001788
294.8582	-0.000554
297.5995	-0.000596
300.3432	0.000438
303.0892	-0.000174
305.8376	0.000100
308.5883	-0.000849
311.3413	-0.000427
314.0967	-0.002369
316.8543	0.000628
319.6143	-0.001588
322.3766	0.001430
325.1412	0.000269
327.9082	0.000860
330.6774	0.000733
333.4489	-0.000047
336.2227	-0.000322
338.9987	-0.000343
341.7771	0.000649
344.5577	-0.001145
347.3406	-0.001356
350.1257	-0.000976
352.9131	0.000902
355.7027	0.000185
358.4946	-0.001356
361.2888	-0.001293
364.0851	-0.000195
366.8837	0.001493
369.6845	-0.000111
372.4876	0.001303
375.2928	-0.000153
378.1003	0.000944
380.9100	0.001451
383.7219	0.000164
386.5359	0.001852
389.3522	0.002126
392.1706	0.001683
394.9912	0.002021
397.8140	0.002865
400.6390	0.002949
403.4661	0.005249
406.2954	0.006726
409.1269	0.009195
411.9605	0.006853
414.7962	0.009807
417.6341	0.011095
420.4741	0.011749
423.3162	0.015083
426.1605	0.014830
429.0068	0.015189
431.8553	0.016898
434.7059	0.016328
437.5586	0.017446
440.4135	0.016370
443.2703	0.021435
446.1293	0.020105
448.9904	0.018481
451.8535	0.016687
454.7188	0.015589
457.5860	0.013817
460.4554	0.013226
463.3268	0.009280
466.2003	0.009850
469.0758	0.008436
471.9533	0.006705
474.8329	0.007212
477.7145	0.005418
480.5982	0.006325
483.4838	0.004891
486.3715	0.012783
489.2612	0.003498
492.1529	0.003223
495.0466	0.002042
497.9423	0.002105
500.8400	0.001704
503.7397	0.002675
506.6414	0.001493
509.5450	0.001957
512.4506	0.002548
515.3582	0.001535
518.2677	0.001409
521.1792	0.002021
524.0927	0.003519
527.0081	0.003540
529.9254	0.003772
532.8447	0.004279
535.7659	0.004743
538.6890	0.007887
541.6140	0.007296
544.5410	0.010377
547.4699	0.013521
550.4007	0.014176
553.3333	0.017489
556.2679	0.020654
559.2044	0.019641
562.1427	0.026774
565.0829	0.030889
568.0250	0.043255
570.9690	0.088435
573.9149	0.116375
576.8626	0.141170
579.8121	0.163729
582.7635	0.207221
585.7167	0.187364
588.6718	0.157061
591.6288	0.107428
594.5875	0.134903
597.5481	0.119773
600.5105	0.151215
603.4747	0.149464
606.4407	0.131780
609.4085	0.109643
612.3781	0.104811
615.3495	0.104262
618.3227	0.085987
621.2977	0.060179
624.2745	0.070161
627.2530	0.058343
630.2333	0.049353
633.2154	0.036819
636.1992	0.034350
639.1848	0.033105
642.1721	0.026185
645.1612	0.024211
648.1520	0.024755
651.1445	0.022670
654.1388	0.027691
657.1348	0.710002
660.1325	0.035440
663.1319	0.017630
666.1330	0.017754
669.1359	0.016961
672.1404	0.026795
675.1466	0.022427
678.1545	0.023060
681.1641	0.028821
684.1754	0.028673
687.1883	0.036481
690.2029	0.028356
693.2192	0.032493
696.2371	0.024284
699.2567	0.029137
702.2779	0.023946
705.3008	0.020950
708.3253	0.029897
711.3514	0.025845
714.3791	0.029243
717.4085	0.023904
720.4395	0.022110
723.4721	0.023355
726.5063	0.027745
729.5421	0.029960
732.5795	0.037241
735.6185	0.041102
738.6591	0.035236
741.7013	0.028335
744.7450	0.023756
747.7903	0.024769
750.8372	0.032936
753.8856	0.034202
756.9356	0.043255
759.9872	0.048995
763.0403	0.040554
766.0949	0.043339
769.1510	0.038760
772.2087	0.033695
775.2679	0.022089
778.3287	0.021920
781.3909	0.031205
784.4547	0.024094
787.5199	0.024136
790.5867	0.021519
793.6550	0.019515
796.7247	0.017658
799.7959	0.017489
802.8686	0.013732
805.9428	0.017468
809.0185	0.018185
812.0956	0.013901
815.1742	0.013585
818.2542	0.012487
821.3357	0.012825
824.4186	0.009174
827.5029	0.012783
830.5887	0.008267
833.6759	0.006916
836.7646	0.007549
839.8546	0.005988
842.9461	0.004447
846.0390	0.006009
849.1333	0.004975
852.2289	0.005017
855.3260	0.011116
858.4245	0.007676
861.5243	0.004574
864.6255	0.003856
867.7281	0.004869
870.8321	0.004194
873.9374	0.003772
877.0441	0.003730
880.1521	0.005735
883.2615	0.004152
886.3722	0.006452
889.4843	0.004701
892.5977	0.004616
895.7124	0.004553
898.8284	0.003371
901.9458	0.003329
905.0644	0.003730
908.1844	0.004194
911.3057	0.002548
914.4283	0.001493
917.5521	0.003688
920.6773	0.002633
923.8037	0.001831
926.9314	0.001936
930.0604	0.002485
933.1906	0.001176
936.3221	0.001915
939.4549	0.001240
942.5889	0.000375
945.7241	0.001366
948.8606	-0.000702
951.9983	0.001746
955.1373	0.000058
958.2775	0.002084
961.4189	0.000185
964.5615	0.001176
967.7053	-0.000533
970.8504	-0.000301
973.9966	0.000628
977.1440	0.000311
980.2926	0.001556
983.4424	0.001683
986.5934	-0.000090
989.7456	-0.000491
992.8989	-0.000870
996.0534	-0.000448
999.2090	-0.000681
1002.37	-0.000765
1005.52	0.000269
1008.68	0.001430
1011.84	-0.001546
1015	0.000058
1018.17	0.000480
1021.33	-0.000554
1023.03	0.000037