Folder: Auto_Polymerization/Auto_Polymerization/Data/UV_VIS_Spectra/MRG-061-F-2_spectra_while_stopped (part 2)

File: spectrum_2025-06-19_11-23-30_absorbance.txt
# Wavelength	Absorbance
197.78 0.109144
200.433 0.032709
203.089 3.034628
205.748 -0.000902
208.408 -0.100702
211.072 0.554259
213.738 -0.036589
216.406 0.238302
219.077 0.111817
221.75 1.592490
224.426 -0.403212
227.105 0.516315
229.786 0.127990
232.469 -0.199321
235.155 0.231558
237.843 -1.204120
240.534 0.000000
243.227 2.710117
245.923 -0.060591
248.621 0.008210
251.321 -0.154025
254.024 2.872739
256.73 -0.261638
259.438 0.657828
262.148 2.989895
264.86 0.264818
267.575 2.799341
270.293 -1.778151
273.013 -0.186086
275.735 -2.683047
278.46 0.021693
281.187 -2.827369
283.917 2.866287
286.648 -0.258141
289.383 -0.117751
292.119 1.050584
294.858 -0.212537
297.599 -0.911186
300.343 3.270446
303.089 0.088422
305.838 0.298577
308.588 3.242293
311.341 0.746217
314.097 2.599883
316.854 3.093772
319.614 0.214419
322.377 1.142383
325.141 0.470360
327.908 0.230557
330.677 0.357645
333.449 3.655235
336.223 1.657637
338.999 0.457108
341.777 3.818094
344.558 2.108678
347.341 3.899164
350.126 0.906250
352.913 0.857839
355.703 3.991448
358.495 1.742511
361.289 1.340574
364.085 0.997931
366.884 1.000300
369.685 4.136974
372.488 1.395566
375.293 2.404178
378.1 1.757721
380.91 1.319122
383.722 1.102469
386.536 1.405831
389.352 1.001055
392.171 1.121363
394.991 0.875393
397.814 0.594572
400.639 0.517658
403.466 0.545014
406.295 0.348589
409.127 0.320333
411.961 0.273928
414.796 0.267321
417.634 0.243522
420.474 0.202832
423.316 0.207229
426.161 0.203492
429.007 0.186803
431.855 0.194279
434.706 0.236076
437.559 0.218892
440.413 0.244927
443.27 0.222619
446.129 0.258860
448.99 0.274740
451.853 0.347142
454.719 0.366389
457.586 0.387217
460.455 0.397541
463.327 0.480502
466.2 0.539428
469.076 0.536224
471.953 0.620061
474.833 0.653255
477.714 0.724350
480.598 0.856296
483.484 1.006149
486.372 0.935267
489.261 1.008248
492.153 0.922187
495.047 1.039483
497.942 1.050416
500.84 1.247307
503.74 1.064603
506.641 1.480153
509.545 1.112794
512.451 1.114062
515.358 0.996951
518.268 1.049817
521.179 1.104682
524.093 1.014965
527.008 0.999611
529.925 0.904692
532.845 0.802322
535.766 0.662687
538.689 0.651098
541.614 0.600618
544.541 0.587903
547.47 0.442234
550.401 0.353099
553.333 0.360050
556.268 0.266138
559.204 0.264897
562.143 0.200812
565.083 0.195981
568.025 0.152248
570.969 0.143060
573.915 0.125095
576.863 0.102473
579.812 0.077333
582.764 0.059533
585.717 0.066324
588.672 0.038188
591.629 0.048117
594.587 0.030469
597.548 0.033456
600.51 0.022354
603.475 0.025169
606.441 0.004546
609.409 0.007329
612.378 0.016137
615.35 0.019830
618.323 -0.000435
621.298 0.013456
624.274 0.003159
627.253 0.001466
630.233 0.006462
633.215 -0.003230
636.199 0.001599
639.185 -0.029480
642.172 0.013272
645.161 0.020559
648.152 0.002446
651.144 0.019682
654.139 0.036606
657.135 0.023560
660.133 -0.060289
663.132 -0.015304
666.133 0.007275
669.136 0.012325
672.14 0.018425
675.147 -0.012919
678.154 0.024148
681.164 0.031864
684.175 0.009419
687.188 0.007141
690.203 0.015472
693.219 -0.022417
696.237 0.010840
699.257 -0.015458
702.278 -0.006824
705.301 -0.014448
708.325 0.024307
711.351 -0.064725
714.379 -0.024406
717.409 0.004798
720.439 -0.005031
723.472 -0.009815
726.506 0.016869
729.542 -0.016228
732.58 0.022712
735.619 0.023184
738.659 -0.006924
741.701 -0.029640
744.745 -0.017081
747.79 0.004791
750.837 -0.023662
753.886 0.001624
756.936 0.005908
759.987 0.015701
763.04 -0.027047
766.095 0.002298
769.151 0.014750
772.209 -0.007179
775.268 -0.030870
778.329 0.013371
781.391 0.033225
784.455 -0.000852
787.52 -0.005367
790.587 0.025695
793.655 0.006012
796.725 0.014577
799.796 -0.002330
802.869 -0.027008
805.943 0.000663
809.019 0.020159
812.096 -0.014515
815.174 -0.011389
818.254 -0.015358
821.336 0.090873
824.419 -0.040739
827.503 0.003480
830.589 0.061415
833.676 0.107468
836.765 -0.000741
839.855 -0.011043
842.946 -0.095064
846.039 -0.041542
849.133 0.122279
852.229 0.006035
855.326 0.035013
858.424 -0.084485
861.524 0.213229
864.625 0.014144
867.728 0.056151
870.832 -0.000271
873.937 0.009670
877.044 -0.072214
880.152 0.039768
883.261 -0.078462
886.372 -0.051973
889.484 0.027009
892.598 0.017411
895.712 0.077337
898.828 0.013388
901.946 0.061578
905.064 0.355582
908.184 -0.038508
911.306 0.023240
914.428 -0.031580
917.552 0.089991
920.677 0.082974
923.804 -0.031150
926.931 -0.047835
930.06 -0.205195
933.191 0.314569
936.322 -0.254422
939.455 0.055475
942.589 0.054196
945.724 0.468581
948.861 0.066633
951.998 -0.139514
955.137 0.831506
958.278 -0.087091
961.419 -0.521429
964.562 0.257657
967.705 0.050885
970.85 2.710117
973.997 2.994757
977.144 -0.049974
980.293 1.417536
983.442 0.010777
986.593 0.460366
989.746 -0.539849
992.899 0.342541
996.053 0.000000
999.209 -1.255273
1002.37 -0.598774
1005.52 1.275070
1008.68 -0.174322
1011.84 -0.132165
1015 0.000000
1018.17 0.495328
1021.33 -2.902547
1023.03 2.812913

File: spectrum_2025-06-19_11-43-57_absorbance.txt
# Wavelength	Absorbance
197.78 -0.191516
200.433 3.008600
203.089 3.034628
205.748 -0.084268
208.408 -0.150748
211.072 0.293583
213.738 -0.188342
216.406 0.283955
219.077 1.103848
221.75 3.183555
224.426 2.719331
227.105 0.032015
229.786 2.791691
232.469 -1.061734
235.155 0.859657
237.843 1.851258
240.534 -2.876795
243.227 2.710117
245.923 3.026125
248.621 2.727541
251.321 2.736397
254.024 2.872739
256.73 3.025715
259.438 0.336405
262.148 0.178990
264.86 2.662758
267.575 -0.355692
270.293 -3.029384
273.013 -0.039509
275.735 -2.390935
278.46 0.474609
281.187 -2.262451
283.917 -0.145283
286.648 -0.003966
289.383 0.235967
292.119 3.059185
294.858 0.554988
297.599 -0.607282
300.343 0.305715
303.089 -0.704271
305.838 0.146894
308.588 0.390423
311.341 0.258621
314.097 2.599883
316.854 0.149289
319.614 0.818508
322.377 0.457849
325.141 3.384174
327.908 0.408024
330.677 3.635484
333.449 3.655235
336.223 3.666237
338.999 0.625120
341.777 3.818094
344.558 0.840724
347.341 3.899164
350.126 1.449673
352.913 0.826819
355.703 1.530550
358.495 1.533484
361.289 0.856317
364.085 1.097221
366.884 1.129640
369.685 4.136974
372.488 2.101002
375.293 2.638261
378.1 1.733437
380.91 1.115312
383.722 4.350442
386.536 4.371972
389.352 4.400383
392.171 1.135185
394.991 0.984143
397.814 0.881199
400.639 0.744450
403.466 0.637261
406.295 0.505283
409.127 0.457533
411.961 0.412882
414.796 0.379005
417.634 0.331750
420.474 0.336571
423.316 0.322709
426.161 0.270103
429.007 0.256597
431.855 0.259291
434.706 0.287965
437.559 0.280909
440.413 0.309423
443.27 0.263316
446.129 0.305529
448.99 0.302786
451.853 0.351265
454.719 0.413162
457.586 0.432249
460.455 0.482334
463.327 0.510000
466.2 0.579622
469.076 0.578691
471.953 0.668031
474.833 0.716005
477.714 0.716831
480.598 0.966370
483.484 0.955717
486.372 1.037426
489.261 1.140583
492.153 1.060472
495.047 1.096345
497.942 1.094448
500.84 1.344943
503.74 1.162892
506.641 1.413838
509.545 1.223843
512.451 1.310578
515.358 1.003732
518.268 1.150272
521.179 1.163683
524.093 1.043251
527.008 0.967320
529.925 0.982308
532.845 0.823560
535.766 0.819734
538.689 0.662539
541.614 0.549023
544.541 0.523499
547.47 0.478640
550.401 0.405029
553.333 0.387931
556.268 0.333708
559.204 0.280566
562.143 0.223995
565.083 0.207272
568.025 0.175701
570.969 0.149392
573.915 0.131412
576.863 0.105286
579.812 0.089299
582.764 0.065774
585.717 0.066707
588.672 0.060144
591.629 0.052742
594.587 0.042022
597.548 0.034446
600.51 0.026788
603.475 0.027660
606.441 0.009712
609.409 0.021026
612.378 0.024626
615.35 0.036519
618.323 0.013684
621.298 0.003974
624.274 0.011372
627.253 -0.006774
630.233 0.020629
633.215 0.006056
636.199 -0.002005
639.185 0.012962
642.172 0.002690
645.161 0.006292
648.152 -0.003326
651.144 0.026217
654.139 0.024334
657.135 0.020435
660.133 -0.046743
663.132 0.042400
666.133 0.045795
669.136 0.047615
672.14 0.027528
675.147 0.015152
678.154 -0.006714
681.164 0.005438
684.175 0.005839
687.188 0.015463
690.203 0.025865
693.219 0.023741
696.237 0.027980
699.257 0.024715
702.278 -0.022602
705.301 0.030119
708.325 0.013624
711.351 -0.039749
714.379 -0.007015
717.409 0.019840
720.439 0.005811
723.472 -0.000155
726.506 -0.019891
729.542 -0.000200
732.58 0.023532
735.619 0.019383
738.659 -0.009184
741.701 -0.012557
744.745 -0.008438
747.79 0.023753
750.837 0.003784
753.886 -0.000546
756.936 -0.002903
759.987 0.004312
763.04 -0.001643
766.095 0.007959
769.151 0.013524
772.209 0.000881
775.268 -0.000313
778.329 -0.006534
781.391 0.025709
784.455 -0.007351
787.52 0.017001
790.587 0.025276
793.655 0.020014
796.725 0.031775
799.796 0.052938
802.869 -0.078436
805.943 0.003460
809.019 0.049227
812.096 0.036800
815.174 0.060051
818.254 0.021711
821.336 0.070794
824.419 0.024782
827.503 0.035902
830.589 0.021823
833.676 0.071861
836.765 0.045466
839.855 -0.006445
842.946 -0.054766
846.039 0.016033
849.133 0.082743
852.229 -0.074133
855.326 0.078998
858.424 -0.089893
861.524 0.086995
864.625 0.069889
867.728 -0.059455
870.832 0.029436
873.937 0.080770
877.044 -0.019402
880.152 0.035398
883.261 -0.087137
886.372 -0.016831
889.484 -0.029494
892.598 0.033538
895.712 -0.007919
898.828 0.031959
901.946 -0.043743
905.064 0.133072
908.184 -0.117563
911.306 0.236163
914.428 -0.004009
917.552 -0.002873
920.677 0.195327
923.804 0.086754
926.931 -0.243321
930.06 -0.077040
933.191 -0.114510
936.322 -0.094702
939.455 0.078995
942.589 0.456279
945.724 0.661998
948.861 -0.079103
951.998 -0.069270
955.137 2.840106
958.278 -0.301677
961.419 -0.247155
964.562 0.131293
967.705 0.066641
970.85 0.823627
973.997 -0.172856
977.144 0.130362
980.293 0.291762
983.442 -0.228189
986.593 0.202153
989.746 -0.672723
992.899 -0.234083
996.053 2.866287
999.209 -2.426511
1002.37 2.599883
1005.52 0.331685
1008.68 0.805474
1011.84 1.123968
1015 0.000000
1018.17 0.161687
1021.33 -2.781755
1023.03 2.812913

File: spectrum_2025-06-19_11-59-18.txt
# Wavelength (nm)	Intensity (a.u.)
197.7802	0.000725
200.4334	-0.000035
203.0892	0.000978
205.7475	0.001105
208.4084	0.000134
211.0718	-0.001027
213.7376	-0.000225
216.4060	-0.000183
219.0769	0.000788
221.7503	-0.001365
224.4262	0.000577
227.1046	0.000134
229.7855	0.000155
232.4688	-0.000056
235.1546	0.001105
237.8429	0.001506
240.5337	0.000028
243.2269	-0.000204
245.9225	0.000746
248.6206	0.000788
251.3212	-0.000120
254.0242	-0.001534
256.7296	0.000535
259.4375	0.000851
262.1477	0.002034
264.8604	-0.000162
267.5755	0.001464
270.2931	-0.000289
273.0130	0.001548
275.7353	-0.000035
278.4600	0.001210
281.1871	0.000155
283.9166	0.000176
286.6484	-0.000563
289.3827	0.000113
292.1193	0.000408
294.8582	0.001189
297.5995	0.000239
300.3432	0.000936
303.0892	0.000387
305.8376	0.000091
308.5883	-0.000014
311.3413	0.000281
314.0967	0.001464
316.8543	-0.000331
319.6143	0.001886
322.3766	-0.000014
325.1412	-0.000056
327.9082	0.000619
330.6774	-0.000204
333.4489	0.001717
336.2227	0.000450
338.9987	-0.000605
341.7771	0.000260
344.5577	0.000281
347.3406	-0.000901
350.1257	0.001527
352.9131	-0.000035
355.7027	0.000408
358.4946	0.000239
361.2888	-0.000331
364.0851	-0.000246
366.8837	0.000767
369.6845	-0.000542
372.4876	0.001316
375.2928	0.000873
378.1003	0.000957
380.9100	0.000007
383.7219	0.000894
386.5359	-0.000479
389.3522	0.000514
392.1706	0.002625
394.9912	0.002224
397.8140	0.002794
400.6390	0.006256
403.4661	0.005939
406.2954	0.010035
409.1269	0.008430
411.9605	0.012547
414.7962	0.013687
417.6341	0.015862
420.4741	0.017170
423.3162	0.019282
426.1605	0.019704
429.0068	0.018986
431.8553	0.021055
434.7059	0.021372
437.5586	0.021604
440.4135	0.021899
443.2703	0.025256
446.1293	0.022343
448.9904	0.023926
451.8535	0.020422
454.7188	0.019197
457.5860	0.018606
460.4554	0.014912
463.3268	0.013223
466.2003	0.013898
469.0758	0.012758
471.9533	0.009043
474.8329	0.009950
477.7145	0.006784
480.5982	0.006910
483.4838	0.003955
486.3715	0.017255
489.2612	0.005411
492.1529	0.005749
495.0466	0.003744
497.9423	0.003891
500.8400	0.003659
503.7397	0.003575
506.6414	0.003511
509.5450	0.004018
512.4506	0.003364
515.3582	0.002941
518.2677	0.002160
521.1792	0.003026
524.0927	0.005264
527.0081	0.004588
529.9254	0.005897
532.8447	0.006404
535.7659	0.009064
538.6890	0.009950
541.6140	0.013455
544.5410	0.013666
547.4699	0.015925
550.4007	0.016727
553.3333	0.020907
556.2679	0.026079
559.2044	0.024369
562.1427	0.033342
565.0829	0.038809
568.0250	0.054537
570.9690	0.105162
573.9149	0.147025
576.8626	0.174934
579.8121	0.200246
582.7635	0.254692
585.7167	0.226572
588.6718	0.193681
591.6288	0.127349
594.5875	0.168896
597.5481	0.149453
600.5105	0.179895
603.4747	0.183315
606.4407	0.164146
609.4085	0.133852
612.3781	0.130284
615.3495	0.126252
618.3227	0.106365
621.2977	0.073221
624.2745	0.087956
627.2530	0.070012
630.2333	0.060469
633.2154	0.046473
636.1992	0.044784
639.1848	0.041596
642.1721	0.032104
645.1612	0.028070
648.1520	0.026513
651.1445	0.028145
654.1388	0.032236
657.1348	0.855966
660.1325	0.060798
663.1319	0.022302
666.1330	0.023234
669.1359	0.022786
672.1404	0.031547
675.1466	0.026079
678.1545	0.028929
681.1641	0.031927
684.1754	0.034883
687.1883	0.043348
690.2029	0.034967
693.2192	0.038767
696.2371	0.029225
699.2567	0.035157
702.2779	0.031230
705.3008	0.023377
708.3253	0.039020
711.3514	0.032328
714.3791	0.035579
717.4085	0.029077
720.4395	0.027219
723.4721	0.027705
726.5063	0.033616
729.5421	0.036656
732.5795	0.042124
735.6185	0.049154
738.6591	0.039675
741.7013	0.033827
744.7450	0.031653
747.7903	0.031019
750.8372	0.038978
753.8856	0.043412
756.9356	0.050378
759.9872	0.061314
763.0403	0.049196
766.0949	0.050758
769.1510	0.049914
772.2087	0.040329
775.2679	0.031252
778.3287	0.025319
781.3909	0.035326
784.4547	0.030660
787.5199	0.030470
790.5867	0.028296
793.6550	0.023398
796.7247	0.021182
799.7959	0.019936
802.8686	0.016896
805.9428	0.019493
809.0185	0.024665
812.0956	0.016157
815.1742	0.016706
818.2542	0.014827
821.3357	0.015862
824.4186	0.012526
827.5029	0.013898
830.5887	0.010563
833.6759	0.008346
836.7646	0.008515
839.8546	0.006826
842.9461	0.005411
846.0390	0.005559
849.1333	0.003934
852.2289	0.006087
855.3260	0.013012
858.4245	0.010520
861.5243	0.008557
864.6255	0.006404
867.7281	0.006509
870.8321	0.006108
873.9374	0.004208
877.0441	0.005179
880.1521	0.009613
883.2615	0.005981
886.3722	0.007269
889.4843	0.004356
892.5977	0.004187
895.7124	0.005285
898.8284	0.005897
901.9458	0.005116
905.0644	0.004335
908.1844	0.003638
911.3057	0.003258
914.4283	0.003828
917.5521	0.004483
920.6773	0.003005
923.8037	0.003913
926.9314	0.002393
930.0604	0.002878
933.1906	0.001485
936.3221	0.001358
939.4549	0.002139
942.5889	0.002160
945.7241	0.001801
948.8606	0.001569
951.9983	0.001506
955.1373	0.001063
958.2775	0.000978
961.4189	0.000577
964.5615	-0.000035
967.7053	-0.000099
970.8504	0.002245
973.9966	0.000303
977.1440	0.000725
980.2926	0.000408
983.4424	-0.000014
986.5934	-0.000162
989.7456	-0.000521
992.8989	0.000767
996.0534	0.000894
999.2090	0.000324
1002.37	0.001991
1005.52	0.000429
1008.68	-0.000605
1011.84	-0.000837
1015	0.000303
1018.17	0.000577
1021.33	-0.000605
1023.03	0.000830

File: spectrum_2025-06-19_12-04-25_absorbance.txt
# Wavelength	Absorbance
197.78 2.878522
200.433 3.008600
203.089 0.716565
205.748 2.682145
208.408 -0.244826
211.072 3.104487
213.738 0.171845
216.406 0.583940
219.077 0.253942
221.75 3.183555
224.426 -0.266544
227.105 2.294466
229.786 0.090123
232.469 1.959041
235.155 0.621582
237.843 1.851258
240.534 -3.115943
243.227 0.008549
245.923 -0.045389
248.621 0.409478
251.321 0.271014
254.024 0.006451
256.73 3.025715
259.438 2.975891
262.148 0.288327
264.86 2.662758
267.575 0.177127
270.293 -2.866287
273.013 0.080009
275.735 0.000000
278.46 0.056411
281.187 -3.273233
283.917 2.866287
286.648 2.940516
289.383 0.338420
292.119 0.054863
294.858 0.579272
297.599 2.269513
300.343 0.206737
303.089 2.357935
305.838 0.020138
308.588 3.242293
311.341 2.041173
314.097 2.599883
316.854 0.340189
319.614 0.018161
322.377 0.279461
325.141 3.384174
327.908 1.075426
330.677 2.044419
333.449 0.367657
336.223 0.896860
338.999 3.739731
341.777 3.818094
344.558 1.150433
347.341 3.899164
350.126 0.632504
352.913 0.833148
355.703 1.467701
358.495 0.974119
361.289 1.288559
364.085 1.073986
366.884 1.087284
369.685 1.035571
372.488 4.180183
375.293 1.187133
378.1 1.589564
380.91 1.487439
383.722 2.572291
386.536 4.371972
389.352 1.601042
392.171 1.350906
394.991 0.901868
397.814 0.971010
400.639 0.721207
403.466 0.743346
406.295 0.574966
409.127 0.529210
411.961 0.489206
414.796 0.404582
417.634 0.392260
420.474 0.345966
423.316 0.382365
426.161 0.328462
429.007 0.313623
431.855 0.305624
434.706 0.293512
437.559 0.301646
440.413 0.334762
443.27 0.275471
446.129 0.349587
448.99 0.377390
451.853 0.397975
454.719 0.403607
457.586 0.420680
460.455 0.503176
463.327 0.569975
466.2 0.604726
469.076 0.582490
471.953 0.764242
474.833 0.710634
477.714 0.845215
480.598 0.870974
483.484 0.997460
486.372 1.012838
489.261 1.076234
492.153 1.083897
495.047 1.053304
497.942 1.052391
500.84 1.178837
503.74 1.068321
506.641 1.328626
509.545 1.175672
512.451 1.394234
515.358 1.143916
518.268 1.232131
521.179 1.222619
524.093 0.965780
527.008 0.953728
529.925 0.843556
532.845 0.827980
535.766 0.767501
538.689 0.669162
541.614 0.609322
544.541 0.554086
547.47 0.457564
550.401 0.377005
553.333 0.373865
556.268 0.325461
559.204 0.261481
562.143 0.220424
565.083 0.199378
568.025 0.175831
570.969 0.143601
573.915 0.140494
576.863 0.117300
579.812 0.095708
582.764 0.068670
585.717 0.071662
588.672 0.047175
591.629 0.052075
594.587 0.039859
597.548 0.036165
600.51 0.034688
603.475 0.031321
606.441 0.018099
609.409 0.023570
612.378 0.027185
615.35 0.016249
618.323 0.006703
621.298 0.016930
624.274 0.023711
627.253 0.008087
630.233 -0.009462
633.215 0.011879
636.199 -0.007201
639.185 -0.006644
642.172 0.028802
645.161 0.043689
648.152 0.019993
651.144 0.007957
654.139 0.034475
657.135 0.018802
660.133 -0.036891
663.132 0.058126
666.133 0.028603
669.136 0.061836
672.14 0.028611
675.147 0.018247
678.154 -0.013543
681.164 -0.014103
684.175 -0.010624
687.188 -0.012860
690.203 0.007819
693.219 0.004925
696.237 0.019552
699.257 -0.004921
702.278 -0.012253
705.301 0.018153
708.325 -0.005084
711.351 -0.046950
714.379 -0.006549
717.409 -0.027390
720.439 0.041528
723.472 0.038071
726.506 0.008450
729.542 0.008773
732.58 0.007355
735.619 0.012920
738.659 0.031164
741.701 -0.018665
744.745 0.000997
747.79 0.014971
750.837 -0.016617
753.886 0.030014
756.936 0.002017
759.987 -0.004697
763.04 0.005055
766.095 0.006420
769.151 0.015025
772.209 0.009328
775.268 -0.012459
778.329 -0.001998
781.391 0.026963
784.455 0.027648
787.52 -0.004243
790.587 0.011404
793.655 0.010525
796.725 0.022169
799.796 0.021260
802.869 -0.012300
805.943 0.022582
809.019 0.059285
812.096 -0.049990
815.174 -0.001197
818.254 0.026029
821.336 0.088176
824.419 0.003331
827.503 0.023168
830.589 0.035752
833.676 0.053085
836.765 0.071487
839.855 -0.008910
842.946 0.040339
846.039 0.001028
849.133 0.019091
852.229 -0.032399
855.326 0.050001
858.424 -0.002287
861.524 0.055897
864.625 0.002213
867.728 0.022581
870.832 -0.011700
873.937 -0.003716
877.044 0.050561
880.152 0.146756
883.261 0.051953
886.372 -0.007835
889.484 -0.012339
892.598 -0.004193
895.712 0.046804
898.828 0.035133
901.946 -0.047578
905.064 0.035215
908.184 0.100418
911.306 0.025234
914.428 0.045981
917.552 0.008641
920.677 -0.024934
923.804 0.047602
926.931 -0.193201
930.06 -0.059591
933.191 0.032401
936.322 -0.436655
939.455 0.098191
942.589 -0.029996
945.724 3.472903
948.861 3.265290
951.998 3.245019
955.137 -0.509171
958.278 -0.296148
961.419 -0.146128
964.562 -0.153857
967.705 -0.149176
970.85 -0.678339
973.997 0.444529
977.144 0.236399
980.293 0.484854
983.442 -0.384536
986.593 -0.082345
989.746 -0.800944
992.899 2.866287
996.053 0.370743
999.209 0.000000
1002.37 2.599883
1005.52 -0.032083
1008.68 2.691965
1011.84 0.228704
1015 0.000000
1018.17 0.145009
1021.33 0.000000
1023.03 2.812913

File: spectrum_2025-06-19_12-09-32.txt
# Wavelength (nm)	Intensity (a.u.)
197.7802	-0.000206
200.4334	0.001441
203.0892	-0.001346
205.7475	0.002201
208.4084	0.001631
211.0718	0.001335
213.7376	0.000829
216.4060	0.001589
219.0769	0.000744
221.7503	0.000047
224.4262	0.001019
227.1046	-0.000396
229.7855	-0.000142
232.4688	-0.000839
235.1546	0.001187
237.8429	-0.000438
240.5337	0.001525
243.2269	-0.000902
245.9225	0.000090
248.6206	0.000026
251.3212	0.000132
254.0242	-0.000797
256.7296	0.001103
259.4375	-0.000438
262.1477	0.001124
264.8604	0.000596
267.5755	-0.000058
270.2931	-0.000396
273.0130	0.000702
275.7353	0.000259
278.4600	-0.000142
281.1871	0.001145
283.9166	0.001567
286.6484	0.000153
289.3827	0.000259
292.1193	0.000660
294.8582	-0.000501
297.5995	0.001187
300.3432	0.000554
303.0892	0.001462
305.8376	0.000427
308.5883	0.001082
311.3413	0.002011
314.0967	0.000512
316.8543	-0.000332
319.6143	0.000280
322.3766	0.000765
325.1412	-0.000881
327.9082	0.000639
330.6774	0.000174
333.4489	0.000744
336.2227	0.000702
338.9987	0.000554
341.7771	0.001061
344.5577	0.000470
347.3406	0.000639
350.1257	-0.000206
352.9131	0.000997
355.7027	0.001715
358.4946	0.000301
361.2888	0.002327
364.0851	0.000259
366.8837	0.000364
369.6845	0.000427
372.4876	0.001947
375.2928	-0.000776
378.1003	0.001462
380.9100	0.000934
383.7219	-0.000058
386.5359	0.000427
389.3522	0.000427
392.1706	0.001990
394.9912	0.002686
397.8140	0.003847
400.6390	0.005177
403.4661	0.007436
406.2954	0.008787
409.1269	0.010856
411.9605	0.011320
414.7962	0.011806
417.6341	0.015775
420.4741	0.015901
423.3162	0.018582
426.1605	0.018540
429.0068	0.018941
431.8553	0.020714
434.7059	0.020250
437.5586	0.021939
440.4135	0.023016
443.2703	0.023079
446.1293	0.023522
448.9904	0.022847
451.8535	0.020757
454.7188	0.018266
457.5860	0.018625
460.4554	0.016894
463.3268	0.014888
466.2003	0.014065
469.0758	0.010180
471.9533	0.009399
474.8329	0.009442
477.7145	0.007689
480.5982	0.008112
483.4838	0.005811
486.3715	0.016640
489.2612	0.005642
492.1529	0.004966
495.0466	0.003742
497.9423	0.003657
500.8400	0.002918
503.7397	0.004586
506.6414	0.003742
509.5450	0.004270
512.4506	0.002517
515.3582	0.003108
518.2677	0.002918
521.1792	0.002370
524.0927	0.004227
527.0081	0.005557
529.9254	0.004776
532.8447	0.006444
535.7659	0.008302
538.6890	0.008998
541.6140	0.011743
544.5410	0.014782
547.4699	0.015922
550.4007	0.019701
553.3333	0.022403
556.2679	0.026140
559.2044	0.026351
562.1427	0.033655
565.0829	0.036611
568.0250	0.053182
570.9690	0.110095
573.9149	0.147144
576.8626	0.172181
579.8121	0.200680
582.7635	0.252780
585.7167	0.223458
588.6718	0.188795
591.6288	0.128630
594.5875	0.167051
597.5481	0.147777
600.5105	0.180118
603.4747	0.186029
606.4407	0.164117
609.4085	0.130298
612.3781	0.132050
615.3495	0.129010
618.3227	0.107351
621.2977	0.075897
624.2745	0.087149
627.2530	0.071084
630.2333	0.059473
633.2154	0.045308
636.1992	0.044041
639.1848	0.040389
642.1721	0.030973
645.1612	0.027708
648.1520	0.031166
651.1445	0.028568
654.1388	0.034835
657.1348	0.858273
660.1325	0.062387
663.1319	0.022026
666.1330	0.025352
669.1359	0.019575
672.1404	0.031671
675.1466	0.026076
678.1545	0.029686
681.1641	0.035998
684.1754	0.032367
687.1883	0.043682
690.2029	0.036041
693.2192	0.038954
696.2371	0.029180
699.2567	0.037729
702.2779	0.031671
705.3008	0.024050
708.3253	0.037814
711.3514	0.033338
714.3791	0.036336
717.4085	0.026076
720.4395	0.027512
723.4721	0.027301
726.5063	0.034267
729.5421	0.036104
732.5795	0.042078
735.6185	0.050311
738.6591	0.040980
741.7013	0.035872
744.7450	0.029834
747.7903	0.032156
750.8372	0.039587
753.8856	0.042057
756.9356	0.051219
759.9872	0.058861
763.0403	0.051683
766.0949	0.050100
769.1510	0.048960
772.2087	0.041318
775.2679	0.030172
778.3287	0.026055
781.3909	0.035661
784.4547	0.031249
787.5199	0.027934
790.5867	0.026055
793.6550	0.023670
796.7247	0.021854
799.7959	0.021981
802.8686	0.017970
805.9428	0.019870
809.0185	0.022868
812.0956	0.018308
815.1742	0.017210
818.2542	0.014930
821.3357	0.015500
824.4186	0.011743
827.5029	0.013537
830.5887	0.009969
833.6759	0.009019
836.7646	0.008175
839.8546	0.009463
842.9461	0.005621
846.0390	0.004924
849.1333	0.003890
852.2289	0.006571
855.3260	0.012418
858.4245	0.011173
861.5243	0.006697
864.6255	0.006233
867.7281	0.006507
870.8321	0.005367
873.9374	0.005262
877.0441	0.007035
880.1521	0.009273
883.2615	0.007563
886.3722	0.007331
889.4843	0.005874
892.5977	0.005135
895.7124	0.005642
898.8284	0.005431
901.9458	0.004628
905.0644	0.006296
908.1844	0.005937
911.3057	0.003721
914.4283	0.003362
917.5521	0.005600
920.6773	0.003277
923.8037	0.003383
926.9314	0.001356
930.0604	0.001821
933.1906	0.002222
936.3221	0.002686
939.4549	0.002306
942.5889	0.002053
945.7241	0.000744
948.8606	-0.000501
951.9983	0.001546
955.1373	0.001631
958.2775	0.002834
961.4189	-0.000501
964.5615	-0.000164
967.7053	0.000090
970.8504	0.001736
973.9966	0.002306
977.1440	0.002180
980.2926	0.000427
983.4424	0.002011
986.5934	-0.000902
989.7456	0.001145
992.8989	0.001082
996.0534	0.000385
999.2090	-0.000459
1002.37	0.001082
1005.52	0.000702
1008.68	0.000850
1011.84	0.001926
1015	0.000575
1018.17	0.000723
1021.33	0.000237
1023.03	0.000280