Folder: Auto_Polymerization/Auto_Polymerization/Data/UV_VIS_Spectra/MRG-061-F-2_spectra_while_stopped

Note: README.md
# Auto_Polymerization

[![Python 3.10](https://img.shields.io/badge/python-3.10-blue.svg)](https://www.python.org/downloads/)
[![License: MIT](https://img.shields.io/badge/License-MIT-yellow.svg)](https://opensource.org/licenses/MIT)

This repository contains the **Auto_Polymerization platform** for automated polymer synthesis and characterization.

## ğŸš€ Quick Start

### Device Testing

For testing real devices in your Auto_Polymerization platform, see the demo folder:

```bash
cd Auto_Polymerization/demo
python demo_device_test.py
```

This will guide you through testing individual devices with safe parameters.

For comprehensive device testing:

```bash
cd Auto_Polymerization/demo
python device_test_controller.py
```

ğŸ“– See [`Auto_Polymerization/demo/DEVICE_TESTING_README.md`](Auto_Polymerization/demo/DEVICE_TESTING_README.md) for detailed documentation.

## ğŸ“¦ Required Packages and Setup

### ğŸ”§ Hardware Drivers

Install drivers for the devices used in this project:

- **[Thorlabs CCS200 Spectrometer](https://www.thorlabs.com/thorproduct.cfm?partnumber=CCS200#ad-image-0)** - UV-VIS spectroscopy
- **[Thorlabs upLED Controller](https://www.thorlabs.com/thorproduct.cfm?partnumber=UPLED)** - LED control

### ğŸ Python Environment

**Python Version:** 3.10

Install the linear actuator and valves control package from the local source in editable mode:

```bash
pip install -e src/linear_actuator_and_valves/
```

### ğŸ“š Core Dependencies

```bash
pip install scipy numpy pandas matplotlib pyserial nmrglue requests pyyaml medusa-sdl
```

### ğŸ”¬ MatterLab Packages

Install from [MatterLab devices repository](https://gitlab.com/aspuru-guzik-group/self-driving-lab/devices):

#### Easy Installation (if available):
```bash
pip install matterlab_hotplates
pip install matterlab_pumps
pip install matterlab_serial_device
```

#### Manual Installation:

**Hotplates, Pumps, Serial Device:**

https://gitlab.com/aspuru-guzik-group/self-driving-lab/devices



**Spectrometers:**

- **NMR (Nanalysis Benchtop):**

  git clone https://gitlab.com/aspuru-guzik-group/self-driving-lab/devices/nmr
  cd nmr
  git checkout develop
  pip install -e .


- **UV-VIS (Thorlabs CCS200):**

  git clone https://gitlab.com/aspuru-guzik-group/self-driving-lab/devices/spectrometer
  cd spectrometer
  git checkout develop
  pip install -e .


> **Note:** If access is not public, contact Han Hao at University of Toronto.

### âš™ï¸ Configuration

**CSS200 Spectrometer DLL:**
Potentially you need to update the `DLL_FILE` value in `ccs_spectrometer.py` in the matterlab package:
The correct file path is typically: 
DLL_FILE = Path(r"C:\Program Files\IVI Foundation\VISA\Win64\Bin\TLCCS_64.dll")
#

**Arduino Setup:**
1. Install Arduino IDE on your PC
2. Upload the Arduino code from `users/setup/` to your Arduino board
3. An overview of the hardware connections of the GPIO pins is given in "Arduino_contacts_overview_2025_06_27_bb.jpg"
## âš ï¸ Important Notes



## ğŸ“ Project Struc

File: spectrum_2025-06-19_10-56-36.txt
# Wavelength (nm)	Intensity (a.u.)
197.7802	0.000614
200.4334	-0.000167
203.0892	0.000128
205.7475	0.000150
208.4084	0.000762
211.0718	0.001015
213.7376	0.001332
216.4060	0.000762
219.0769	-0.000779
221.7503	0.000340
224.4262	-0.000463
227.1046	-0.000146
229.7855	0.001353
232.4688	-0.000040
235.1546	-0.000040
237.8429	0.000276
240.5337	-0.000336
243.2269	-0.000083
245.9225	0.000783
248.6206	0.000107
251.3212	0.001881
254.0242	0.001015
256.7296	-0.000399
259.4375	0.000867
262.1477	0.000044
264.8604	0.000086
267.5755	0.000002
270.2931	0.000783
273.0130	-0.000505
275.7353	-0.000399
278.4600	0.000762
281.1871	-0.000167
283.9166	0.001564
286.6484	-0.001138
289.3827	0.000572
292.1193	0.000150
294.8582	0.000910
297.5995	-0.001434
300.3432	0.001079
303.0892	-0.000357
305.8376	0.000720
308.5883	0.000107
311.3413	0.002029
314.0967	0.000276
316.8543	0.000107
319.6143	0.000002
322.3766	0.000297
325.1412	-0.000611
327.9082	-0.000231
330.6774	-0.000843
333.4489	0.000361
336.2227	-0.000019
338.9987	0.000276
341.7771	-0.000526
344.5577	0.000150
347.3406	0.000445
350.1257	-0.000547
352.9131	0.000656
355.7027	-0.000442
358.4946	-0.000167
361.2888	0.000487
364.0851	0.000741
366.8837	0.000593
369.6845	0.000171
372.4876	0.000487
375.2928	0.000128
378.1003	0.000086
380.9100	0.001691
383.7219	0.000086
386.5359	0.000741
389.3522	0.002219
392.1706	0.004795
394.9912	0.008954
397.8140	0.013579
400.6390	0.016302
403.4661	0.018921
406.2954	0.024368
409.1269	0.023439
411.9605	0.025804
414.7962	0.025276
417.6341	0.026205
420.4741	0.031906
423.3162	0.034989
426.1605	0.028084
429.0068	0.028950
431.8553	0.029563
434.7059	0.028760
437.5586	0.029499
440.4135	0.027008
443.2703	0.033173
446.1293	0.028971
448.9904	0.028253
451.8535	0.026163
454.7188	0.019702
457.5860	0.020166
460.4554	0.020504
463.3268	0.017210
466.2003	0.017485
469.0758	0.012164
471.9533	0.008933
474.8329	0.007709
477.7145	0.007814
480.5982	0.008617
483.4838	0.006674
486.3715	0.018900
489.2612	0.004457
492.1529	0.005027
495.0466	0.004288
497.9423	0.004415
500.8400	0.002641
503.7397	0.004605
506.6414	0.003021
509.5450	0.003612
512.4506	0.003929
515.3582	0.001585
518.2677	0.002916
521.1792	0.001923
524.0927	0.003992
527.0081	0.004478
529.9254	0.005217
532.8447	0.004161
535.7659	0.008025
538.6890	0.007983
541.6140	0.011530
544.5410	0.014106
547.4699	0.017844
550.4007	0.017949
553.3333	0.022193
556.2679	0.025466
559.2044	0.023587
562.1427	0.034292
565.0829	0.040880
568.0250	0.054731
570.9690	0.115289
573.9149	0.154457
576.8626	0.184735
579.8121	0.205217
582.7635	0.268160
585.7167	0.239465
588.6718	0.202007
591.6288	0.131273
594.5875	0.168730
597.5481	0.151733
600.5105	0.180892
603.4747	0.188262
606.4407	0.166661
609.4085	0.134862
612.3781	0.128359
615.3495	0.130132
618.3227	0.104921
621.2977	0.076416
624.2745	0.087079
627.2530	0.068393
630.2333	0.061171
633.2154	0.043393
636.1992	0.043013
639.1848	0.039698
642.1721	0.029784
645.1612	0.026207
648.1520	0.031059
651.1445	0.027569
654.1388	0.033197
657.1348	0.867912
660.1325	0.061865
663.1319	0.022701
666.1330	0.024094
669.1359	0.020568
672.1404	0.033511
675.1466	0.024157
678.1545	0.029837
681.1641	0.031167
684.1754	0.032476
687.1883	0.042992
690.2029	0.032455
693.2192	0.038684
696.2371	0.029098
699.2567	0.034693
702.2779	0.031273
705.3008	0.024242
708.3253	0.037945
711.3514	0.030787
714.3791	0.036720
717.4085	0.027704
720.4395	0.026374
723.4721	0.029056
726.5063	0.033025
729.5421	0.036340
732.5795	0.041556
735.6185	0.047742
738.6591	0.040880
741.7013	0.032139
744.7450	0.028971
747.7903	0.028380
750.8372	0.037248
753.8856	0.040880
756.9356	0.052008
759.9872	0.058068
763.0403	0.049052
766.0949	0.050530
769.1510	0.047827
772.2087	0.041155
775.2679	0.030048
778.3287	0.024664
781.3909	0.033131
784.4547	0.032835
787.5199	0.030618
790.5867	0.025213
793.6550	0.022827
796.7247	0.021961
799.7959	0.021518
802.8686	0.014803
805.9428	0.020230
809.0185	0.022193
812.0956	0.015310
815.1742	0.014867
818.2542	0.014550
821.3357	0.015479
824.4186	0.010200
827.5029	0.013726
830.5887	0.011277
833.6759	0.009208
836.7646	0.007666
839.8546	0.007371
842.9461	0.006526
846.0390	0.004731
849.1333	0.004373
852.2289	0.005344
855.3260	0.011615
858.4245	0.011425
861.5243	0.006991
864.6255	0.005977
867.7281	0.005323
870.8321	0.005555
873.9374	0.005935
877.0441	0.004351
880.1521	0.007075
883.2615	0.005449
886.3722	0.005851
889.4843	0.004161
892.5977	0.006104
895.7124	0.004161
898.8284	0.006442
901.9458	0.002430
905.0644	0.003908
908.1844	0.002578
911.3057	0.003148
914.4283	0.002536
917.5521	0.004014
920.6773	0.004457
923.8037	0.000783
926.9314	0.002514
930.0604	0.001839
933.1906	0.001332
936.3221	0.001733
939.4549	0.001606
942.5889	0.001923
945.7241	0.002198
948.8606	0.000234
951.9983	0.001944
955.1373	0.000825
958.2775	0.001480
961.4189	0.000889
964.5615	0.001691
967.7053	0.001311
970.8504	0.000340
973.9966	0.000086
977.1440	0.001374
980.2926	0.000867
983.4424	0.001205
986.5934	-0.000252
989.7456	0.001248
992.8989	0.000804
996.0534	-0.000927
999.2090	-0.000611
1002.37	0.001543
1005.52	0.001564
1008.68	-0.000421
1011.84	0.000931
1015	0.000002
1018.17	-0.000252
1021.33	-0.000653
1023.03	0.000509

File: spectrum_2025-06-19_10-56-36_absorbance.txt
# Wavelength	Absorbance
197.78 0.090353
200.433 3.008600
203.089 0.927418
205.748 0.506054
208.408 0.088857
211.072 0.098021
213.738 -0.139078
216.406 0.020048
219.077 2.990339
221.75 0.652076
224.426 2.719331
227.105 2.294466
229.786 -0.339607
232.469 1.959041
235.155 3.406199
237.843 -0.589651
240.534 0.000000
243.227 2.710117
245.923 0.132363
248.621 0.698157
251.321 -0.537992
254.024 -0.133727
256.73 3.025715
259.438 0.037872
262.148 1.346442
264.86 0.728259
267.575 2.498311
270.293 -2.893762
273.013 2.799341
275.735 0.000000
278.46 0.053552
281.187 0.000000
283.917 -0.327949
286.648 2.940516
289.383 0.317420
292.119 0.883093
294.858 0.115775
297.599 2.269513
300.343 0.237424
303.089 2.357935
305.838 0.343791
308.588 1.212909
311.341 -0.010836
314.097 0.158974
316.854 1.064388
319.614 2.943989
322.377 0.987690
325.141 3.384174
327.908 3.508395
330.677 3.635484
333.449 1.097727
336.223 3.666237
338.999 1.298821
341.777 3.818094
344.558 1.710738
347.341 1.250804
350.126 3.910571
352.913 1.079953
355.703 3.991448
358.495 3.959995
361.289 1.354613
364.085 1.150128
366.884 1.290579
369.685 1.903978
372.488 1.492654
375.293 2.075119
378.1 2.318767
380.91 1.112994
383.722 2.415943
386.536 1.502154
389.352 1.054225
392.171 0.764239
394.991 0.516994
397.814 0.390202
400.639 0.326069
403.466 0.245565
406.295 0.168649
409.127 0.168509
411.961 0.122098
414.796 0.143229
417.634 0.123095
420.474 0.101066
423.316 0.087705
426.161 0.125120
429.007 0.142610
431.855 0.132483
434.706 0.157045
437.559 0.164075
440.413 0.225592
443.27 0.191469
446.129 0.262116
448.99 0.265339
451.853 0.274180
454.719 0.355768
457.586 0.386506
460.455 0.401736
463.327 0.451034
466.2 0.500774
469.076 0.562209
471.953 0.656104
474.833 0.775410
477.714 0.756685
480.598 0.799060
483.484 0.905629
486.372 0.945059
489.261 1.077790
492.153 0.996853
495.047 1.075707
497.942 1.049727
500.84 1.279774
503.74 1.083428
506.641 1.247976
509.545 1.129540
512.451 1.047925
515.358 1.426332
518.268 1.152055
521.179 1.299990
524.093 0.983265
527.008 0.927853
529.925 0.889787
532.845 0.977124
535.766 0.737653
538.689 0.738782
541.614 0.601070
544.541 0.563557
547.47 0.448588
550.401 0.408859
553.333 0.370013
556.268 0.335325
559.204 0.289225
562.143 0.217654
565.083 0.178619
568.025 0.165594
570.969 0.125612
573.915 0.120158
576.863 0.091968
579.812 0.083344
582.764 0.049838
585.717 0.048666
588.672 0.034707
591.629 0.046974
594.587 0.037642
597.548 0.036488
600.51 0.032517
603.475 0.025644
606.441 -0.000315
609.409 0.012372
612.378 0.023481
615.35 0.016843
618.323 0.023458
621.298 0.001237
624.274 0.008118
627.253 0.019276
630.233 0.008827
633.215 0.027363
636.199 0.010681
639.185 0.009811
642.172 0.034250
645.161 0.021436
648.152 -0.016284
651.144 0.031369
654.139 0.022485
657.135 0.020125
660.133 -0.050735
663.132 -0.000115
666.133 0.005143
669.136 0.039280
672.14 0.003742
675.147 0.050311
678.154 -0.010281
681.164 0.043834
684.175 0.025564
687.188 0.018723
690.203 0.032439
693.219 0.013529
696.237 0.014689
699.257 0.017902
702.278 -0.011768
705.301 0.004190
708.325 0.008859
711.351 -0.008591
714.379 -0.033948
717.409 0.006565
720.439 0.036176
723.472 -0.016078
726.506 0.013873
729.542 0.006665
732.58 0.020743
735.619 0.010923
738.659 0.000658
741.701 0.019449
744.745 0.010296
747.79 0.050819
750.837 0.020785
753.886 0.028812
756.936 -0.003555
759.987 0.023807
763.04 0.000283
766.095 -0.002638
769.151 0.010709
772.209 0.003186
775.268 -0.012864
778.329 0.016092
781.391 0.045566
784.455 -0.024303
787.52 -0.017113
790.587 0.019222
793.655 0.025797
796.725 0.030726
799.796 0.012081
802.869 0.032248
805.943 -0.012479
809.019 0.044030
812.096 0.022498
815.174 0.049764
818.254 0.018866
821.336 0.056041
824.419 0.037661
827.503 0.032248
830.589 -0.034034
833.676 0.091862
836.765 0.059074
839.855 0.033387
842.946 -0.099815
846.039 0.127547
849.133 0.102260
852.229 0.035337
855.326 0.103213
858.424 -0.072969
861.524 0.062065
864.625 0.073795
867.728 -0.017566
870.832 0.062106
873.937 -0.026320
877.044 0.047958
880.152 0.104226
883.261 0.044720
886.372 0.062524
889.484 0.035075
892.598 -0.001568
895.712 0.098223
898.828 -0.048221
901.946 0.285567
905.064 0.136724
908.184 0.153028
911.306 0.165289
914.428 0.105725
917.552 0.065740
920.677 -0.135026
923.804 0.723448
926.931 -0.059921
930.06 0.071678
933.191 0.269246
936.322 -0.086510
939.455 0.241723
942.589 -0.031126
945.724 0.130875
948.861 0.896074
951.998 -0.043677
955.137 -0.076348
958.278 -0.343539
961.419 -0.295689
964.562 0.024709
967.705 0.034686
970.85 0.178638
973.997 1.060258
977.144 0.054581
980.293 0.070581
983.442 -0.470327
986.593 2.820201
989.746 -0.972363
992.899 -0.038969
996.053 2.866287
999.209 0.000000
1002.37 -0.588483
1005.52 -0.010682
1008.68 2.691965
1011.84 -0.096793
1015 -0.301030
1018.17 3.231724
1021.33 0.000000
1023.03 0.106196

File: spectrum_2025-06-19_11-01-43_absorbance.txt
# Wavelength	Absorbance
197.78 -0.447404
200.433 3.008600
203.089 -0.077641
205.748 0.071485
208.408 2.970812
211.072 -0.097183
213.738 2.985426
216.406 -0.005946
219.077 0.800007
221.75 0.509613
224.426 -0.188617
227.105 2.294466
229.786 0.030515
232.469 -0.817660
235.155 3.406199
237.843 1.006160
240.534 0.000000
243.227 0.036175
245.923 3.026125
248.621 2.727541
251.321 0.043550
254.024 0.025166
256.73 3.025715
259.438 0.283044
262.148 -0.205728
264.86 -0.128933
267.575 0.088377
270.293 0.000000
273.013 2.799341
275.735 0.000000
278.46 -0.183749
281.187 -2.941014
283.917 2.866287
286.648 2.940516
289.383 0.227244
292.119 0.448524
294.858 3.074816
297.599 0.310472
300.343 1.311405
303.089 -0.418766
305.838 0.270684
308.588 0.631633
311.341 0.130905
314.097 -0.308065
316.854 0.382809
319.614 0.734474
322.377 0.600109
325.141 3.384174
327.908 0.815548
330.677 0.829304
333.449 3.655235
336.223 1.821139
338.999 0.879393
341.777 3.818094
344.558 0.621068
347.341 1.484190
350.126 0.751305
352.913 1.105166
355.703 1.480903
358.495 1.396514
361.289 1.101128
364.085 4.019947
366.884 1.203296
369.685 4.136974
372.488 1.261105
375.293 1.070059
378.1 1.368470
380.91 4.341138
383.722 1.399104
386.536 1.808491
389.352 1.029130
392.171 1.255257
394.991 0.535575
397.814 0.428878
400.639 0.364105
403.466 0.303449
406.295 0.229892
409.127 0.193388
411.961 0.185831
414.796 0.156417
417.634 0.156839
420.474 0.132592
423.316 0.127138
426.161 0.158990
429.007 0.120329
431.855 0.129029
434.706 0.154756
437.559 0.133701
440.413 0.209539
443.27 0.217626
446.129 0.241048
448.99 0.254066
451.853 0.305726
454.719 0.327749
457.586 0.396065
460.455 0.425997
463.327 0.467755
466.2 0.538452
469.076 0.534312
471.953 0.602823
474.833 0.685279
477.714 0.716122
480.598 0.869075
483.484 0.909419
486.372 0.993686
489.261 1.063132
492.153 1.054808
495.047 1.092643
497.942 1.286079
500.84 1.393191
503.74 1.278015
506.641 1.201270
509.545 1.123807
512.451 1.333856
515.358 1.259005
518.268 0.945300
521.179 1.094011
524.093 1.036312
527.008 0.979491
529.925 0.825740
532.845 0.976603
535.766 0.691880
538.689 0.672605
541.614 0.564290
544.541 0.553755
547.47 0.516184
550.401 0.425934
553.333 0.372820
556.268 0.315539
559.204 0.211095
562.143 0.242933
565.083 0.168165
568.025 0.165737
570.969 0.136158
573.915 0.123622
576.863 0.092123
579.812 0.082416
582.764 0.050501
585.717 0.053607
588.672 0.044911
591.629 0.039086
594.587 0.025115
597.548 0.031267
600.51 0.029796
603.475 0.023855
606.441 0.003059
609.409 0.014693
612.378 -0.007594
615.35 0.009024
618.323 -0.000435
621.298 -0.006977
624.274 0.006326
627.253 0.006579
630.233 0.010912
633.215 -0.000488
636.199 -0.006483
639.185 0.011400
642.172 -0.003824
645.161 -0.026450
648.152 -0.011701
651.144 0.005887
654.139 0.008163
657.135 0.016911
660.133 -0.041261
663.132 -0.010138
666.133 0.012706
669.136 0.056949
672.14 0.009207
675.147 0.020893
678.154 0.005943
681.164 0.024778
684.175 0.027776
687.188 0.011709
690.203 0.002104
693.219 0.008306
696.237 -0.018709
699.257 0.021296
702.278 -0.008282
705.301 -0.000762
708.325 0.021565
711.351 -0.073281
714.379 -0.005616
717.409 -0.021067
720.439 0.013088
723.472 -0.003968
726.506 0.002043
729.542 -0.005578
732.58 0.038731
735.619 0.018253
738.659 0.011294
741.701 0.004546
744.745 0.016288
747.79 0.001637
750.837 0.011727
753.886 0.031476
756.936 0.018296
759.987 0.012104
763.04 -0.010084
766.095 -0.002844
769.151 0.012219
772.209 -0.012382
775.268 -0.017779
778.329 -0.004305
781.391 0.024983
784.455 -0.017034
787.52 0.010015
790.587 0.026482
793.655 0.013437
796.725 0.034839
799.796 0.005651
802.869 -0.040168
805.943 0.005939
809.019 0.066829
812.096 -0.045671
815.174 0.044134
818.254 0.072319
821.336 0.035680
824.419 0.023297
827.503 -0.000088
830.589 0.058784
833.676 0.011841
836.765 0.148737
839.855 0.000765
842.946 0.122323
846.039 0.024132
849.133 -0.015040
852.229 0.128323
855.326 0.058822
858.424 0.024512
861.524 0.108783
864.625 -0.017542
867.728 -0.009246
870.832 0.092461
873.937 0.105825
877.044 0.051667
880.152 0.008878
883.261 0.013436
886.372 0.098085
889.484 -0.019209
892.598 0.062731
895.712 0.008405
898.828 0.042962
901.946 -0.082104
905.064 -0.057292
908.184 -0.146483
911.306 0.141924
914.428 0.022877
917.552 -0.093512
920.677 0.006700
923.804 0.387784
926.931 0.045757
930.06 -0.026976
933.191 0.034484
936.322 -0.031551
939.455 -0.033401
942.589 -0.064374
945.724 0.389759
948.861 0.230260
951.998 0.112119
955.137 -0.349665
958.278 -0.467964
961.419 -0.512329
964.562 -0.077561
967.705 0.857822
970.85 -0.208961
973.997 2.994757
977.144 0.654748
980.293 1.318404
983.442 -0.082187
986.593 -0.510212
989.746 2.123852
992.899 -0.368483
996.053 -0.095134
999.209 0.000000
1002.37 2.599883
1005.52 0.100410
1008.68 2.691965
1011.84 -0.012639
1015 -3.207365
1018.17 0.621064
1021.33 -2.653213
1023.03 2.812913

File: spectrum_2025-06-19_11-13-16_absorbance.txt
# Wavelength	Absorbance
197.78 -0.086209
200.433 3.008600
203.089 3.034628
205.748 2.682145
208.408 0.975176
211.072 3.104487
213.738 0.413718
216.406 0.025208
219.077 2.990339
221.75 0.611846
224.426 2.719331
227.105 -0.650016
229.786 -0.047158
232.469 1.959041
235.155 3.406199
237.843 1.851258
240.534 0.000000
243.227 2.710117
245.923 3.026125
248.621 2.727541
251.321 -0.163971
254.024 -0.139254
256.73 0.430219
259.438 2.975891
262.148 2.989895
264.86 2.662758
267.575 0.138475
270.293 0.000000
273.013 2.799341
275.735 0.000000
278.46 -0.039004
281.187 0.000000
283.917 -0.108224
286.648 2.940516
289.383 0.435330
292.119 3.059185
294.858 0.222947
297.599 -0.464486
300.343 0.553608
303.089 2.357935
305.838 0.467125
308.588 0.330071
311.341 3.296446
314.097 2.599883
316.854 0.229261
319.614 0.207194
322.377 1.916379
325.141 0.572599
327.908 3.508395
330.677 3.635484
333.449 0.873479
336.223 0.854662
338.999 0.875219
341.777 0.656726
344.558 3.886829
347.341 3.899164
350.126 3.910571
352.913 1.505922
355.703 0.739080
358.495 1.299129
361.289 4.042142
364.085 0.965717
366.884 4.063634
369.685 0.988371
372.488 4.180183
375.293 1.501994
378.1 1.330021
380.91 4.341138
383.722 4.350442
386.536 4.371972
389.352 0.956338
392.171 0.909101
394.991 0.619776
397.814 0.515706
400.639 0.426443
403.466 0.364932
406.295 0.373711
409.127 0.262630
411.961 0.240820
414.796 0.160725
417.634 0.168917
420.474 0.196207
423.316 0.176457
426.161 0.176439
429.007 0.170489
431.855 0.145803
434.706 0.173370
437.559 0.192753
440.413 0.207082
443.27 0.223661
446.129 0.273414
448.99 0.301280
451.853 0.304781
454.719 0.318892
457.586 0.367502
460.455 0.431973
463.327 0.493134
466.2 0.555073
469.076 0.531908
471.953 0.633465
474.833 0.695657
477.714 0.795131
480.598 0.758846
483.484 0.855533
486.372 0.976403
489.261 0.940295
492.153 1.031737
495.047 1.222951
497.942 1.087525
500.84 1.195985
503.74 1.326207
506.641 1.300803
509.545 1.130503
512.451 1.070382
515.358 1.056987
518.268 1.523772
521.179 1.136501
524.093 0.961724
527.008 0.983220
529.925 0.948815
532.845 0.860643
535.766 0.746124
538.689 0.669255
541.614 0.569863
544.541 0.512302
547.47 0.461282
550.401 0.364833
553.333 0.349153
556.268 0.316045
559.204 0.251728
562.143 0.226353
565.083 0.184082
568.025 0.141494
570.969 0.145285
573.915 0.121143
576.863 0.092585
579.812 0.076484
582.764 0.060325
585.717 0.051243
588.672 0.039102
591.629 0.035372
594.587 0.027142
597.548 0.031655
600.51 0.021426
603.475 0.023719
606.441 0.007823
609.409 0.010043
612.378 0.011623
615.35 0.022138
618.323 0.008494
621.298 -0.003657
624.274 0.009377
627.253 -0.003189
630.233 0.004954
633.215 0.017791
636.199 0.001856
639.185 -0.004681
642.172 0.022384
645.161 0.015266
648.152 0.001673
651.144 0.015956
654.139 0.012616
657.135 0.017173
660.133 -0.049533
663.132 0.027021
666.133 0.014048
669.136 0.013458
672.14 0.018559
675.147 0.010190
678.154 0.021024
681.164 -0.012075
684.175 0.009819
687.188 0.023487
690.203 0.020247
693.219 0.013102
696.237 0.008818
699.257 0.022471
702.278 -0.012281
705.301 -0.001329
708.325 -0.004651
711.351 -0.032574
714.379 0.000128
717.409 -0.021861
720.439 0.023246
723.472 -0.000899
726.506 -0.010371
729.542 0.008233
732.58 0.028132
735.619 0.013066
738.659 -0.015156
741.701 -0.026722
744.745 -0.021074
747.79 -0.005115
750.837 -0.012792
753.886 0.003153
756.936 -0.002644
759.987 0.004970
763.04 -0.004148
766.095 0.015931
769.151 0.017509
772.209 -0.000764
775.268 -0.026018
778.329 -0.005212
781.391 0.036588
784.455 0.032370
787.52 0.005076
790.587 0.012471
793.655 0.021914
796.725 0.015263
799.796 -0.003694
802.869 -0.023874
805.943 -0.028805
809.019 0.044970
812.096 -0.032927
815.174 -0.044996
818.254 0.022885
821.336 0.068883
824.419 0.000899
827.503 0.045353
830.589 -0.006901
833.676 0.018163
836.765 0.045357
839.855 -0.080452
842.946 -0.027578
846.039 0.073578
849.133 0.051692
852.229 0.007710
855.326 0.008755
858.424 -0.012455
861.524 0.071866
864.625 0.003632
867.728 -0.088330
870.832 0.130646
873.937 0.051970
877.044 0.102668
880.152 -0.026460
883.261 -0.059006
886.372 0.061560
889.484 -0.010181
892.598 0.060345
895.712 0.178847
898.828 0.096345
901.946 0.039729
905.064 -0.034750
908.184 -0.081897
911.306 0.160624
914.428 -0.051942
917.552 -0.008746
920.677 -0.047800
923.804 0.070667
926.931 -0.080007
930.06 -0.199667
933.191 0.083908
936.322 0.074194
939.455 0.185017
942.589 0.400983
945.724 0.596108
948.861 0.129839
951.998 0.935389
955.137 2.840106
958.278 -0.410067
961.419 -0.468347
964.562 0.553883
967.705 3.152288
970.85 -0.457495
973.997 2.994757
977.144 0.292200
980.293 3.008600
983.442 -0.050205
986.593 2.820201
989.746 -1.101974
992.899 0.979797
996.053 -0.067706
999.209 0.000000
1002.37 -0.039603
1005.52 0.522689
1008.68 2.691965
1011.84 0.276660
1015 0.000000
1018.17 3.231724
1021.33 0.000000
1023.03 2.812913