Folder: Auto_Polymerization/Auto_Polymerization/Data/UV_VIS_Spectra/MRG-061-F-4_spectra_while_stopped_no_alu_foil

Note: README.md
# Auto_Polymerization

[![Python 3.10](https://img.shields.io/badge/python-3.10-blue.svg)](https://www.python.org/downloads/)
[![License: MIT](https://img.shields.io/badge/License-MIT-yellow.svg)](https://opensource.org/licenses/MIT)

This repository contains the **Auto_Polymerization platform** for automated polymer synthesis and characterization.

## ğŸš€ Quick Start

### Device Testing

For testing real devices in your Auto_Polymerization platform, see the demo folder:

```bash
cd Auto_Polymerization/demo
python demo_device_test.py
```

This will guide you through testing individual devices with safe parameters.

For comprehensive device testing:

```bash
cd Auto_Polymerization/demo
python device_test_controller.py
```

ğŸ“– See [`Auto_Polymerization/demo/DEVICE_TESTING_README.md`](Auto_Polymerization/demo/DEVICE_TESTING_README.md) for detailed documentation.

## ğŸ“¦ Required Packages and Setup

### ğŸ”§ Hardware Drivers

Install drivers for the devices used in this project:

- **[Thorlabs CCS200 Spectrometer](https://www.thorlabs.com/thorproduct.cfm?partnumber=CCS200#ad-image-0)** - UV-VIS spectroscopy
- **[Thorlabs upLED Controller](https://www.thorlabs.com/thorproduct.cfm?partnumber=UPLED)** - LED control

### ğŸ Python Environment

**Python Version:** 3.10

Install the linear actuator and valves control package from the local source in editable mode:

```bash
pip install -e src/linear_actuator_and_valves/
```

### ğŸ“š Core Dependencies

```bash
pip install scipy numpy pandas matplotlib pyserial nmrglue requests pyyaml medusa-sdl
```

### ğŸ”¬ MatterLab Packages

Install from [MatterLab devices repository](https://gitlab.com/aspuru-guzik-group/self-driving-lab/devices):

#### Easy Installation (if available):
```bash
pip install matterlab_hotplates
pip install matterlab_pumps
pip install matterlab_serial_device
```

#### Manual Installation:

**Hotplates, Pumps, Serial Device:**

https://gitlab.com/aspuru-guzik-group/self-driving-lab/devices



**Spectrometers:**

- **NMR (Nanalysis Benchtop):**

  git clone https://gitlab.com/aspuru-guzik-group/self-driving-lab/devices/nmr
  cd nmr
  git checkout develop
  pip install -e .


- **UV-VIS (Thorlabs CCS200):**

  git clone https://gitlab.com/aspuru-guzik-group/self-driving-lab/devices/spectrometer
  cd spectrometer
  git checkout develop
  pip install -e .


> **Note:** If access is not public, contact Han Hao at University of Toronto.

### âš™ï¸ Configuration

**CSS200 Spectrometer DLL:**
Potentially you need to update the `DLL_FILE` value in `ccs_spectrometer.py` in the matterlab package:
The correct file path is typically: 
DLL_FILE = Path(r"C:\Program Files\IVI Foundation\VISA\Win64\Bin\TLCCS_64.dll")
#

**Arduino Setup:**
1. Install Arduino IDE on your PC
2. Upload the Arduino code from `users/setup/` to your Arduino board
3. An overview of the hardware connections of the GPIO pins is given in "Arduino_contacts_overview_2025_06_27_bb.jpg"
## âš ï¸ Important Notes



## ğŸ“ Project Struc

File: spectrum_2025-06-20_08-18-36.txt
# Wavelength (nm)	Intensity (a.u.)
197.7802	0.000519
200.4334	0.000793
203.0892	0.001046
205.7475	-0.000051
208.4084	0.000392
211.0718	0.000730
213.7376	-0.000009
216.4060	-0.000621
219.0769	-0.001085
221.7503	0.000898
224.4262	-0.000051
227.1046	-0.001106
229.7855	0.000097
232.4688	0.000265
235.1546	0.001362
237.8429	-0.000831
240.5337	0.001341
243.2269	0.000856
245.9225	0.000223
248.6206	0.000645
251.3212	-0.000093
254.0242	-0.001380
256.7296	-0.000789
259.4375	0.000139
262.1477	0.001573
264.8604	0.000772
267.5755	0.000772
270.2931	-0.001401
273.0130	0.000054
275.7353	0.000814
278.4600	-0.000346
281.1871	0.000392
283.9166	-0.000367
286.6484	-0.000410
289.3827	0.000856
292.1193	-0.000599
294.8582	0.000223
297.5995	-0.000853
300.3432	0.000983
303.0892	-0.001190
305.8376	0.000371
308.5883	0.002122
311.3413	0.001890
314.0967	0.000139
316.8543	0.000076
319.6143	-0.000473
322.3766	0.000898
325.1412	0.000392
327.9082	-0.000220
330.6774	-0.001823
333.4489	0.000940
336.2227	-0.000642
338.9987	-0.000388
341.7771	0.000624
344.5577	0.000244
347.3406	-0.001317
350.1257	-0.000072
352.9131	-0.000916
355.7027	-0.000452
358.4946	-0.001591
361.2888	0.001320
364.0851	-0.000009
366.8837	0.000835
369.6845	0.000202
372.4876	0.000033
375.2928	-0.000578
378.1003	0.000118
380.9100	-0.000346
383.7219	-0.000431
386.5359	0.001236
389.3522	0.001932
392.1706	0.003134
394.9912	0.007649
397.8140	0.012247
400.6390	0.013175
403.4661	0.015770
406.2954	0.019883
409.1269	0.019778
411.9605	0.020812
414.7962	0.022731
417.6341	0.023554
420.4741	0.024587
423.3162	0.025769
426.1605	0.023723
429.0068	0.023132
431.8553	0.023723
434.7059	0.022373
437.5586	0.024672
440.4135	0.021866
443.2703	0.025874
446.1293	0.023891
448.9904	0.022183
451.8535	0.019947
454.7188	0.017099
457.5860	0.015559
460.4554	0.016529
463.3268	0.012964
466.2003	0.013281
469.0758	0.011087
471.9533	0.006868
474.8329	0.008661
477.7145	0.006172
480.5982	0.008429
483.4838	0.004527
486.3715	0.014631
489.2612	0.003134
492.1529	0.003767
495.0466	0.002544
497.9423	0.003725
500.8400	0.001637
503.7397	0.003746
506.6414	0.002966
509.5450	0.003598
512.4506	0.001510
515.3582	0.003345
518.2677	0.001784
521.1792	0.002058
524.0927	0.003155
527.0081	0.003809
529.9254	0.004927
532.8447	0.005855
535.7659	0.006045
538.6890	0.008324
541.6140	0.010328
544.5410	0.010918
547.4699	0.015348
550.4007	0.013428
553.3333	0.020242
556.2679	0.023237
559.2044	0.022035
562.1427	0.027878
565.0829	0.033257
568.0250	0.046125
570.9690	0.091394
573.9149	0.127888
576.8626	0.148476
579.8121	0.170393
582.7635	0.216506
585.7167	0.198280
588.6718	0.166027
591.6288	0.110611
594.5875	0.141325
597.5481	0.120779
600.5105	0.151513
603.4747	0.155732
606.4407	0.135503
609.4085	0.109472
612.3781	0.105591
615.3495	0.107067
618.3227	0.087871
621.2977	0.060385
624.2745	0.070953
627.2530	0.058951
630.2333	0.050681
633.2154	0.036506
636.1992	0.032350
639.1848	0.034017
642.1721	0.025725
645.1612	0.023301
648.1520	0.022526
651.1445	0.024212
654.1388	0.026824
657.1348	0.723526
660.1325	0.036357
663.1319	0.016883
666.1330	0.019654
669.1359	0.016804
672.1404	0.026950
675.1466	0.023069
678.1545	0.023216
681.1641	0.028005
684.1754	0.027288
687.1883	0.036991
690.2029	0.029861
693.2192	0.031359
696.2371	0.024693
699.2567	0.030156
702.2779	0.024482
705.3008	0.020137
708.3253	0.031760
711.3514	0.025748
714.3791	0.029460
717.4085	0.022963
720.4395	0.024250
723.4721	0.022520
726.5063	0.028384
729.5421	0.030557
732.5795	0.033616
735.6185	0.040936
738.6591	0.033321
741.7013	0.026549
744.7450	0.022162
747.7903	0.026549
750.8372	0.033278
753.8856	0.034776
756.9356	0.041442
759.9872	0.049542
763.0403	0.039691
766.0949	0.041421
769.1510	0.041843
772.2087	0.035177
775.2679	0.023301
778.3287	0.021022
781.3909	0.029355
784.4547	0.025178
787.5199	0.025094
790.5867	0.021887
793.6550	0.019736
796.7247	0.018196
799.7959	0.018618
802.8686	0.013239
805.9428	0.016909
809.0185	0.018955
812.0956	0.012078
815.1742	0.012163
818.2542	0.012542
821.3357	0.013513
824.4186	0.009020
827.5029	0.010496
830.5887	0.005877
833.6759	0.007100
836.7646	0.006172
839.8546	0.007142
842.9461	0.002966
846.0390	0.004189
849.1333	0.004189
852.2289	0.006383
855.3260	0.010011
858.4245	0.007374
861.5243	0.005687
864.6255	0.004885
867.7281	0.004906
870.8321	0.004927
873.9374	0.003873
877.0441	0.004674
880.1521	0.005602
883.2615	0.005898
886.3722	0.005581
889.4843	0.002565
892.5977	0.002712
895.7124	0.003493
898.8284	0.004991
901.9458	0.003113
905.0644	0.004527
908.1844	0.003261
911.3057	0.003155
914.4283	0.003472
917.5521	0.004548
920.6773	0.002206
923.8037	0.002755
926.9314	0.001088
930.0604	0.002438
933.1906	0.000603
936.3221	0.000856
939.4549	0.002227
942.5889	0.000582
945.7241	0.000033
948.8606	0.001615
951.9983	0.001109
955.1373	0.000118
958.2775	0.001784
961.4189	0.001658
964.5615	0.001130
967.7053	0.000434
970.8504	0.000983
973.9966	0.001025
977.1440	0.000202
980.2926	-0.000473
983.4424	0.001531
986.5934	0.000561
989.7456	0.000772
992.8989	-0.000494
996.0534	0.000751
999.2090	-0.000705
1002.37	0.001468
1005.52	0.001341
1008.68	-0.000705
1011.84	0.000645
1015	-0.000030
1018.17	0.000751
1021.33	-0.000072
1023.03	-0.000895