Folder: Auto_Polymerization/Auto_Polymerization/Data/UV_VIS_Spectra/MRG-061-F5_spectra_while_stopped_with_alu_foil (part 4)

File: spectrum_2025-06-20_10-08-03_absorbance.txt
# Wavelength	Absorbance
197.78 -0.115795
200.433 3.008600
203.089 0.089653
205.748 0.529857
208.408 -0.004160
211.072 0.642089
213.738 -0.107995
216.406 2.902003
219.077 2.990339
221.75 1.420127
224.426 2.719331
227.105 0.726265
229.786 0.791691
232.469 -0.040959
235.155 0.566721
237.843 1.851258
240.534 0.000000
243.227 -0.102127
245.923 0.943339
248.621 0.644756
251.321 2.736397
254.024 1.668619
256.73 0.384241
259.438 2.975891
262.148 0.633869
264.86 2.662758
267.575 0.532169
270.293 -2.767898
273.013 2.799341
275.735 -2.492760
278.46 0.621640
281.187 0.000000
283.917 2.866287
286.648 -0.181372
289.383 3.074816
292.119 -0.193183
294.858 3.074816
297.599 2.269513
300.343 0.628972
303.089 2.357935
305.838 1.201124
308.588 3.242293
311.341 3.296446
314.097 2.599883
316.854 0.295812
319.614 3.245019
322.377 0.305111
325.141 0.954422
327.908 0.573897
330.677 0.770380
333.449 3.655235
336.223 3.666237
338.999 3.739731
341.777 1.005849
344.558 3.886829
347.341 3.899164
350.126 3.910571
352.913 0.941650
355.703 1.724276
358.495 3.959995
361.289 4.042142
364.085 4.019947
366.884 0.889574
369.685 4.136974
372.488 1.065239
375.293 4.182329
378.1 1.278293
380.91 1.179470
383.722 2.135598
386.536 1.104331
389.352 1.072819
392.171 1.218944
394.991 1.163445
397.814 1.065945
400.639 1.068635
403.466 0.802433
406.295 0.727712
409.127 0.574896
411.961 0.697904
414.796 0.554402
417.634 0.496352
420.474 0.534938
423.316 0.453149
426.161 0.402438
429.007 0.422729
431.855 0.375396
434.706 0.402901
437.559 0.392186
440.413 0.443036
443.27 0.381130
446.129 0.420775
448.99 0.449679
451.853 0.469490
454.719 0.457460
457.586 0.550712
460.455 0.592146
463.327 0.719267
466.2 0.750003
469.076 0.721149
471.953 0.780702
474.833 0.804353
477.714 0.915720
480.598 0.933355
483.484 1.040617
486.372 1.114888
489.261 1.183013
492.153 1.189901
495.047 1.397906
497.942 1.371406
500.84 1.470072
503.74 1.319334
506.641 1.554067
509.545 1.395697
512.451 1.236008
515.358 1.440253
518.268 1.467932
521.179 1.278403
524.093 1.038036
527.008 1.029934
529.925 1.030637
532.845 0.964980
535.766 0.966045
538.689 0.744036
541.614 0.799815
544.541 0.696889
547.47 0.569072
550.401 0.511346
553.333 0.473464
556.268 0.426281
559.204 0.368734
562.143 0.325134
565.083 0.300326
568.025 0.267791
570.969 0.240775
573.915 0.243106
576.863 0.208775
579.812 0.181431
582.764 0.161798
585.717 0.155222
588.672 0.144005
591.629 0.134032
594.587 0.134813
597.548 0.139209
600.51 0.110342
603.475 0.125870
606.441 0.101669
609.409 0.102280
612.378 0.111500
615.35 0.113101
618.323 0.109887
621.298 0.104977
624.274 0.101936
627.253 0.088299
630.233 0.102059
633.215 0.098711
636.199 0.108354
639.185 0.088686
642.172 0.090181
645.161 0.055841
648.152 0.082241
651.144 0.116339
654.139 0.101245
657.135 0.107341
660.133 0.191216
663.132 0.109678
666.133 0.137755
669.136 0.123020
672.14 0.100876
675.147 0.082583
678.154 0.101615
681.164 0.077820
684.175 0.079653
687.188 0.090044
690.203 0.091076
693.219 0.089270
696.237 0.093232
699.257 0.093700
702.278 0.104169
705.301 0.067574
708.325 0.112386
711.351 0.067400
714.379 0.064933
717.409 0.070637
720.439 0.112763
723.472 0.078778
726.506 0.089531
729.542 0.090508
732.58 0.068356
735.619 0.075961
738.659 0.065182
741.701 0.074158
744.745 0.096486
747.79 0.109923
750.837 0.074217
753.886 0.106271
756.936 0.076479
759.987 0.097592
763.04 0.082906
766.095 0.064032
769.151 0.101998
772.209 0.090043
775.268 0.120775
778.329 0.067315
781.391 0.071576
784.455 0.110125
787.52 0.086199
790.587 0.088024
793.655 0.093877
796.725 0.125436
799.796 0.102118
802.869 0.064863
805.943 0.051274
809.019 0.130533
812.096 0.064427
815.174 0.088928
818.254 0.085271
821.336 0.137727
824.419 0.083702
827.503 0.063159
830.589 0.100811
833.676 0.216173
836.765 0.065753
839.855 0.123631
842.946 0.066765
846.039 0.023698
849.133 0.046246
852.229 0.062759
855.326 0.122284
858.424 0.099752
861.524 0.246308
864.625 0.264142
867.728 0.021151
870.832 0.184162
873.937 0.170529
877.044 0.114838
880.152 0.195419
883.261 0.162780
886.372 0.020060
889.484 -0.017917
892.598 0.119781
895.712 0.059123
898.828 0.233041
901.946 0.148859
905.064 0.156970
908.184 -0.058318
911.306 0.257125
914.428 0.335814
917.552 0.102526
920.677 0.093565
923.804 0.354522
926.931 0.053539
930.06 -0.059067
933.191 0.323343
936.322 -0.129880
939.455 0.354046
942.589 0.678822
945.724 0.337452
948.861 3.265290
951.998 0.002975
955.137 1.076678
958.278 -0.492175
961.419 0.386041
964.562 0.182446
967.705 3.152288
970.85 2.710117
973.997 0.196797
977.144 0.699807
980.293 -0.183409
983.442 -0.615424
986.593 2.820201
989.746 2.123852
992.899 2.866287
996.053 2.866287
999.209 0.000000
1002.37 2.599883
1005.52 0.753802
1008.68 -0.463371
1011.84 2.872156
1015 -1.763428
1018.17 0.550483
1021.33 0.000000
1023.03 1.244712

File: spectrum_2025-06-20_10-13-10.txt
# Wavelength (nm)	Intensity (a.u.)
197.7802	0.000684
200.4334	-0.001046
203.0892	0.000473
205.7475	-0.000181
208.4084	0.000241
211.0718	0.000241
213.7376	0.000726
216.4060	0.001612
219.0769	0.000979
221.7503	-0.000371
224.4262	0.000937
227.1046	0.000304
229.7855	0.000241
232.4688	0.000241
235.1546	0.001000
237.8429	-0.000139
240.5337	-0.000455
243.2269	-0.000434
245.9225	0.000325
248.6206	0.000410
251.3212	-0.000012
254.0242	0.001465
256.7296	0.000135
259.4375	-0.000603
262.1477	0.000663
264.8604	0.000621
267.5755	0.001359
270.2931	0.000452
273.0130	0.001760
275.7353	0.000093
278.4600	0.000220
281.1871	-0.000371
283.9166	-0.000498
286.6484	-0.000265
289.3827	0.001085
292.1193	-0.001152
294.8582	-0.000582
297.5995	-0.000730
300.3432	0.001254
303.0892	-0.000181
305.8376	0.001169
308.5883	0.000494
311.3413	0.000431
314.0967	-0.000012
316.8543	0.001465
319.6143	-0.000498
322.3766	0.000389
325.1412	-0.000181
327.9082	-0.000055
330.6774	0.000853
333.4489	-0.000730
336.2227	-0.000498
338.9987	0.000705
341.7771	-0.000181
344.5577	0.000072
347.3406	0.000431
350.1257	-0.000666
352.9131	0.001190
355.7027	0.000979
358.4946	0.000220
361.2888	-0.000645
364.0851	-0.001194
366.8837	0.001254
369.6845	-0.001130
372.4876	-0.000751
375.2928	0.000030
378.1003	0.000473
380.9100	-0.000371
383.7219	0.001380
386.5359	0.000325
389.3522	0.000789
392.1706	0.000895
394.9912	0.001992
397.8140	0.004186
400.6390	0.004566
403.4661	0.005093
406.2954	0.008448
409.1269	0.008153
411.9605	0.007498
414.7962	0.009566
417.6341	0.010368
420.4741	0.012245
423.3162	0.014355
426.1605	0.013047
429.0068	0.015600
431.8553	0.013364
434.7059	0.016191
437.5586	0.018301
440.4135	0.018258
443.2703	0.019988
446.1293	0.018828
448.9904	0.016655
451.8535	0.016845
454.7188	0.014693
457.5860	0.014503
460.4554	0.013765
463.3268	0.011359
466.2003	0.011402
469.0758	0.007688
471.9533	0.007013
474.8329	0.007477
477.7145	0.006465
480.5982	0.005473
483.4838	0.005642
486.3715	0.013870
489.2612	0.003849
492.1529	0.003680
495.0466	0.002773
497.9423	0.002730
500.8400	0.003195
503.7397	0.002962
506.6414	0.002773
509.5450	0.002984
512.4506	0.001823
515.3582	0.002034
518.2677	0.001676
521.1792	0.002815
524.0927	0.003532
527.0081	0.001465
529.9254	0.003659
532.8447	0.004946
535.7659	0.006444
538.6890	0.007520
541.6140	0.007963
544.5410	0.011528
547.4699	0.013068
550.4007	0.012119
553.3333	0.016866
556.2679	0.022984
559.2044	0.020917
562.1427	0.025410
565.0829	0.030242
568.0250	0.044314
570.9690	0.088282
573.9149	0.120815
576.8626	0.139613
579.8121	0.157820
582.7635	0.204298
585.7167	0.188686
588.6718	0.156913
591.6288	0.102291
594.5875	0.134380
597.5481	0.117291
600.5105	0.147545
603.4747	0.150119
606.4407	0.129233
609.4085	0.106194
612.3781	0.106004
615.3495	0.104759
618.3227	0.085244
621.2977	0.059715
624.2745	0.069505
627.2530	0.055707
630.2333	0.048217
633.2154	0.035432
636.1992	0.033533
639.1848	0.032774
642.1721	0.025236
645.1612	0.021037
648.1520	0.023228
651.1445	0.023744
654.1388	0.026611
657.1348	0.697746
660.1325	0.039839
663.1319	0.015473
666.1330	0.020870
669.1359	0.016085
672.1404	0.025115
675.1466	0.021761
678.1545	0.023870
681.1641	0.028533
684.1754	0.028322
687.1883	0.038786
690.2029	0.027541
693.2192	0.032963
696.2371	0.023385
699.2567	0.028322
702.2779	0.024102
705.3008	0.020284
708.3253	0.031761
711.3514	0.026254
714.3791	0.028512
717.4085	0.022161
720.4395	0.020558
723.4721	0.022689
726.5063	0.027035
729.5421	0.028807
732.5795	0.033006
735.6185	0.038470
738.6591	0.033955
741.7013	0.027668
744.7450	0.024946
747.7903	0.025938
750.8372	0.035137
753.8856	0.032563
756.9356	0.041424
759.9872	0.050707
763.0403	0.039862
766.0949	0.042120
769.1510	0.040580
772.2087	0.032584
775.2679	0.024166
778.3287	0.021149
781.3909	0.029398
784.4547	0.025178
787.5199	0.023491
790.5867	0.021402
793.6550	0.019904
796.7247	0.019925
799.7959	0.017351
802.8686	0.013933
805.9428	0.016170
809.0185	0.019651
812.0956	0.014862
815.1742	0.013765
818.2542	0.010537
821.3357	0.012203
824.4186	0.010600
827.5029	0.012857
830.5887	0.008996
833.6759	0.009271
836.7646	0.007456
839.8546	0.006570
842.9461	0.004756
846.0390	0.004671
849.1333	0.004060
852.2289	0.005136
855.3260	0.011591
858.4245	0.008174
861.5243	0.003954
864.6255	0.004081
867.7281	0.003173
870.8321	0.003806
873.9374	0.005705
877.0441	0.003870
880.1521	0.007140
883.2615	0.004967
886.3722	0.004692
889.4843	0.005937
892.5977	0.004271
895.7124	0.002562
898.8284	0.004482
901.9458	0.004123
905.0644	0.004249
908.1844	0.003068
911.3057	0.004608
914.4283	0.002393
917.5521	0.004060
920.6773	0.003237
923.8037	0.003131
926.9314	0.002625
930.0604	0.002519
933.1906	0.002688
936.3221	0.001718
939.4549	0.001338
942.5889	0.000114
945.7241	0.002604
948.8606	-0.000244
951.9983	0.001232
955.1373	0.000283
958.2775	0.001127
961.4189	-0.000329
964.5615	0.000452
967.7053	-0.000097
970.8504	-0.000012
973.9966	0.000410
977.1440	0.000389
980.2926	-0.000033
983.4424	0.002604
986.5934	0.000473
989.7456	-0.000856
992.8989	-0.000476
996.0534	0.001591
999.2090	0.000178
1002.37	-0.000097
1005.52	-0.000076
1008.68	-0.000434
1011.84	0.001570
1015	0.000051
1018.17	0.001654
1021.33	-0.000898
1023.03	0.001169

File: spectrum_2025-06-20_10-18-17.txt
# Wavelength (nm)	Intensity (a.u.)
197.7802	0.000341
200.4334	0.000531
203.0892	0.001754
205.7475	0.000826
208.4084	0.000531
211.0718	0.000341
213.7376	0.000341
216.4060	0.000784
219.0769	0.001269
221.7503	-0.000819
224.4262	0.000278
227.1046	0.000046
229.7855	0.001100
232.4688	0.000383
235.1546	0.001669
237.8429	0.001522
240.5337	-0.000165
243.2269	0.001037
245.9225	0.001543
248.6206	0.000172
251.3212	0.001669
254.0242	0.000805
256.7296	0.000805
259.4375	0.000004
262.1477	0.001121
264.8604	-0.000018
267.5755	0.001142
270.2931	0.000868
273.0130	0.001733
275.7353	0.000742
278.4600	0.000531
281.1871	0.000678
283.9166	0.000383
286.6484	-0.000207
289.3827	0.000742
292.1193	-0.000334
294.8582	0.000931
297.5995	0.000004
300.3432	0.000467
303.0892	-0.000671
305.8376	0.000172
308.5883	0.000847
311.3413	0.001627
314.0967	0.001859
316.8543	0.000931
319.6143	0.000383
322.3766	0.000720
325.1412	-0.000123
327.9082	0.002028
330.6774	0.001353
333.4489	0.001733
336.2227	0.000910
338.9987	-0.000144
341.7771	-0.000144
344.5577	0.000320
347.3406	0.000678
350.1257	0.001269
352.9131	0.000510
355.7027	0.000552
358.4946	0.000910
361.2888	0.002070
364.0851	-0.000271
366.8837	-0.000439
369.6845	0.000615
372.4876	0.001564
375.2928	0.001733
378.1003	0.000404
380.9100	0.001669
383.7219	0.001290
386.5359	0.000214
389.3522	0.001142
392.1706	0.000910
394.9912	0.001922
397.8140	0.002766
400.6390	0.004052
403.4661	0.004727
406.2954	0.006456
409.1269	0.007489
411.9605	0.008122
414.7962	0.009113
417.6341	0.010273
420.4741	0.012951
423.3162	0.015334
426.1605	0.014743
429.0068	0.015291
431.8553	0.018075
434.7059	0.015924
437.5586	0.015376
440.4135	0.017147
443.2703	0.021006
446.1293	0.019783
448.9904	0.018918
451.8535	0.016472
454.7188	0.014364
457.5860	0.014933
460.4554	0.013963
463.3268	0.011791
466.2003	0.011433
469.0758	0.008438
471.9533	0.006646
474.8329	0.008016
477.7145	0.005992
480.5982	0.005170
483.4838	0.006098
486.3715	0.013436
489.2612	0.004094
492.1529	0.003673
495.0466	0.004727
497.9423	0.003188
500.8400	0.002344
503.7397	0.002850
506.6414	0.003905
509.5450	0.002660
512.4506	0.002049
515.3582	0.002281
518.2677	0.002639
521.1792	0.002829
524.0927	0.003335
527.0081	0.003272
529.9254	0.004558
532.8447	0.006161
535.7659	0.006435
538.6890	0.009450
541.6140	0.008417
544.5410	0.012255
547.4699	0.013014
550.4007	0.013710
553.3333	0.019150
556.2679	0.020479
559.2044	0.020352
562.1427	0.027269
565.0829	0.030094
568.0250	0.043063
570.9690	0.085152
573.9149	0.119481
576.8626	0.139092
579.8121	0.159377
582.7635	0.206169
585.7167	0.188983
588.6718	0.152629
591.6288	0.103350
594.5875	0.137721
597.5481	0.118827
600.5105	0.143014
603.4747	0.150795
606.4407	0.129708
609.4085	0.106892
612.3781	0.103371
615.3495	0.103181
618.3227	0.085384
621.2977	0.060269
624.2745	0.069147
627.2530	0.056685
630.2333	0.049536
633.2154	0.036231
636.1992	0.035556
639.1848	0.032161
642.1721	0.025622
645.1612	0.022029
648.1520	0.022553
651.1445	0.022109
654.1388	0.027807
657.1348	0.705432
660.1325	0.038901
663.1319	0.018151
666.1330	0.019281
669.1359	0.018412
672.1404	0.028133
675.1466	0.021702
678.1545	0.024548
681.1641	0.028302
684.1754	0.027458
687.1883	0.035345
690.2029	0.026615
693.2192	0.032140
696.2371	0.022840
699.2567	0.029799
702.2779	0.024802
705.3008	0.019024
708.3253	0.032519
711.3514	0.024527
714.3791	0.027965
717.4085	0.024106
720.4395	0.024949
723.4721	0.022862
726.5063	0.028534
729.5421	0.029820
732.5795	0.034396
735.6185	0.040005
738.6591	0.033384
741.7013	0.029715
744.7450	0.025561
747.7903	0.026805
750.8372	0.034122
753.8856	0.035724
756.9356	0.043759
759.9872	0.048735
763.0403	0.042557
766.0949	0.041776
769.1510	0.040659
772.2087	0.033911
775.2679	0.026025
778.3287	0.021955
781.3909	0.030326
784.4547	0.026109
787.5199	0.025687
790.5867	0.020500
793.6550	0.018307
796.7247	0.017506
799.7959	0.017295
802.8686	0.014068
805.9428	0.017506
809.0185	0.020268
812.0956	0.015587
815.1742	0.013351
818.2542	0.011833
821.3357	0.011939
824.4186	0.007257
827.5029	0.012909
830.5887	0.008628
833.6759	0.006477
836.7646	0.007110
839.8546	0.007763
842.9461	0.004811
846.0390	0.004390
849.1333	0.004326
852.2289	0.005908
855.3260	0.010800
858.4245	0.008143
861.5243	0.006013
864.6255	0.005613
867.7281	0.004853
870.8321	0.004305
873.9374	0.004305
877.0441	0.004242
880.1521	0.007405
883.2615	0.005739
886.3722	0.003715
889.4843	0.004411
892.5977	0.003841
895.7124	0.003947
898.8284	0.003926
901.9458	0.003715
905.0644	0.003462
908.1844	0.003167
911.3057	0.003947
914.4283	0.001922
917.5521	0.003799
920.6773	0.001838
923.8037	0.003841
926.9314	0.004137
930.0604	0.001943
933.1906	0.001838
936.3221	0.002344
939.4549	0.002323
942.5889	0.000067
945.7241	0.001648
948.8606	0.001205
951.9983	0.001269
955.1373	0.002450
958.2775	0.001817
961.4189	0.000278
964.5615	-0.000018
967.7053	0.000341
970.8504	0.002260
973.9966	0.000320
977.1440	0.001395
980.2926	0.000868
983.4424	-0.000018
986.5934	0.001311
989.7456	-0.000777
992.8989	0.000109
996.0534	0.000425
999.2090	0.000109
1002.37	0.001796
1005.52	0.001627
1008.68	-0.000481
1011.84	0.001733
1015	0.000826
1018.17	0.000341
1021.33	0.000446
1023.03	0.000552

File: spectrum_2025-06-20_10-23-24.txt
# Wavelength (nm)	Intensity (a.u.)
197.7802	0.001320
200.4334	0.000223
203.0892	0.000814
205.7475	0.000961
208.4084	0.000434
211.0718	0.000751
213.7376	0.001531
216.4060	0.000645
219.0769	0.000835
221.7503	-0.000916
224.4262	0.001004
227.1046	-0.001148
229.7855	0.001215
232.4688	0.000645
235.1546	0.000413
237.8429	-0.000388
240.5337	0.000202
243.2269	0.001172
245.9225	0.000118
248.6206	0.000054
251.3212	0.000793
254.0242	0.000076
256.7296	0.001362
259.4375	-0.000578
262.1477	-0.000009
264.8604	0.000645
267.5755	0.000202
270.2931	-0.000030
273.0130	0.000476
275.7353	0.000076
278.4600	-0.000705
281.1871	0.001193
283.9166	0.001025
286.6484	0.000708
289.3827	-0.000325
292.1193	-0.000452
294.8582	0.000497
297.5995	0.000202
300.3432	0.000772
303.0892	0.000729
305.8376	0.000160
308.5883	-0.000410
311.3413	0.001172
314.0967	0.000666
316.8543	0.001784
319.6143	0.000287
322.3766	0.000624
325.1412	0.001784
327.9082	0.001130
330.6774	0.001383
333.4489	0.000413
336.2227	0.000244
338.9987	0.001362
341.7771	0.000624
344.5577	0.001489
347.3406	0.000265
350.1257	0.000645
352.9131	-0.000494
355.7027	0.000329
358.4946	0.000624
361.2888	-0.000241
364.0851	0.000202
366.8837	0.000898
369.6845	-0.001063
372.4876	0.001383
375.2928	0.000940
378.1003	-0.000009
380.9100	-0.000747
383.7219	0.000413
386.5359	-0.001148
389.3522	0.000371
392.1706	0.001341
394.9912	0.002396
397.8140	0.002775
400.6390	0.003134
403.4661	0.003893
406.2954	0.005644
409.1269	0.007226
411.9605	0.006635
414.7962	0.011360
417.6341	0.010327
420.4741	0.013765
423.3162	0.015452
426.1605	0.014524
429.0068	0.015305
431.8553	0.016127
434.7059	0.015980
437.5586	0.016401
440.4135	0.018194
443.2703	0.020957
446.1293	0.017794
448.9904	0.018679
451.8535	0.015790
454.7188	0.015452
457.5860	0.013216
460.4554	0.012563
463.3268	0.012183
466.2003	0.012752
469.0758	0.008576
471.9533	0.006678
474.8329	0.005623
477.7145	0.007015
480.5982	0.005096
483.4838	0.004315
486.3715	0.015832
489.2612	0.003767
492.1529	0.003851
495.0466	0.002775
497.9423	0.002185
500.8400	0.003197
503.7397	0.003619
506.6414	0.003071
509.5450	0.003261
512.4506	0.002839
515.3582	0.002143
518.2677	0.002354
521.1792	0.002396
524.0927	0.003661
527.0081	0.003303
529.9254	0.003809
532.8447	0.004168
535.7659	0.006846
538.6890	0.006530
541.6140	0.009441
544.5410	0.011339
547.4699	0.013237
550.4007	0.014883
553.3333	0.019165
556.2679	0.021632
559.2044	0.019122
562.1427	0.026399
565.0829	0.031251
568.0250	0.043906
570.9690	0.087125
573.9149	0.121570
576.8626	0.144013
579.8121	0.160992
582.7635	0.206911
585.7167	0.183520
588.6718	0.156479
591.6288	0.103283
594.5875	0.135048
597.5481	0.119060
600.5105	0.148231
603.4747	0.150805
606.4407	0.130176
609.4085	0.106025
612.3781	0.102439
615.3495	0.103578
618.3227	0.086303
621.2977	0.057638
624.2745	0.069007
627.2530	0.059199
630.2333	0.049665
633.2154	0.034330
636.1992	0.033761
639.1848	0.033086
642.1721	0.026127
645.1612	0.022044
648.1520	0.023950
651.1445	0.022507
654.1388	0.027994
657.1348	0.715028
660.1325	0.037096
663.1319	0.018397
666.1330	0.018267
669.1359	0.016823
672.1404	0.028319
675.1466	0.021042
678.1545	0.023151
681.1641	0.027159
684.1754	0.026863
687.1883	0.036840
690.2029	0.029141
693.2192	0.034668
696.2371	0.025134
699.2567	0.028825
702.2779	0.023467
705.3008	0.020156
708.3253	0.033339
711.3514	0.025598
714.3791	0.029880
717.4085	0.023932
720.4395	0.025408
723.4721	0.022835
726.5063	0.029711
729.5421	0.031082
732.5795	0.033634
735.6185	0.037937
738.6591	0.031947
741.7013	0.028572
744.7450	0.024585
747.7903	0.027475
750.8372	0.032411
753.8856	0.035448
756.9356	0.042493
759.9872	0.050087
763.0403	0.041164
766.0949	0.039287
769.1510	0.040025
772.2087	0.033423
775.2679	0.025914
778.3287	0.021126
781.3909	0.030618
784.4547	0.025535
787.5199	0.025598
790.5867	0.020367
793.6550	0.020240
796.7247	0.019481
799.7959	0.016380
802.8686	0.013976
805.9428	0.018616
809.0185	0.019397
812.0956	0.014482
815.1742	0.014440
818.2542	0.012605
821.3357	0.012267
824.4186	0.008386
827.5029	0.011234
830.5887	0.007901
833.6759	0.007500
836.7646	0.007838
839.8546	0.006572
842.9461	0.005496
846.0390	0.005581
849.1333	0.003809
852.2289	0.003661
855.3260	0.012647
858.4245	0.009019
861.5243	0.004146
864.6255	0.004758
867.7281	0.005918
870.8321	0.004843
873.9374	0.003936
877.0441	0.004400
880.1521	0.007078
883.2615	0.005771
886.3722	0.005813
889.4843	0.002797
892.5977	0.003577
895.7124	0.004400
898.8284	0.003893
901.9458	0.004020
905.0644	0.004125
908.1844	0.002037
911.3057	0.004252
914.4283	0.001847
917.5521	0.003514
920.6773	0.003851
923.8037	0.002522
926.9314	0.003218
930.0604	0.000940
933.1906	0.002333
936.3221	0.002100
939.4549	0.002712
942.5889	0.002923
945.7241	0.001172
948.8606	0.000350
951.9983	0.001615
955.1373	0.001320
958.2775	0.001742
961.4189	0.000751
964.5615	-0.000072
967.7053	0.000793
970.8504	0.001172
973.9966	0.001426
977.1440	0.000793
980.2926	0.000033
983.4424	0.001447
986.5934	0.000455
989.7456	-0.000114
992.8989	-0.000388
996.0534	-0.000388
999.2090	0.000160
1002.37	0.000603
1005.52	-0.000114
1008.68	-0.000747
1011.84	0.000012
1015	0.000645
1018.17	0.001594
1021.33	0.002058
1023.03	0.000519

File: spectrum_2025-06-20_10-23-24_absorbance.txt
# Wavelength	Absorbance
197.78 -0.242052
200.433 0.660295
203.089 0.124004
205.748 -0.300578
208.408 0.333322
211.072 0.228847
213.738 -0.199549
216.406 0.092443
219.077 0.068652
221.75 3.183555
224.426 -0.282402
227.105 2.294466
229.786 -0.292886
232.469 -0.850518
235.155 0.790249
237.843 1.851258
240.534 -2.305351
243.227 -0.358810
245.923 0.954243
248.621 0.995147
251.321 -0.162877
254.024 0.991925
256.73 -0.108462
259.438 2.975891
262.148 2.989895
264.86 -0.146802
267.575 0.493989
270.293 0.000000
273.013 0.121734
275.735 -1.880814
278.46 2.935507
281.187 -3.076640
283.917 -0.144437
286.648 0.090483
289.383 3.074816
292.119 3.059185
294.858 0.378460
297.599 -0.035838
300.343 0.382829
303.089 -0.504793
305.838 0.997004
308.588 3.242293
311.341 0.227518
314.097 -0.223591
316.854 -0.157623
319.614 0.787137
322.377 0.665262
325.141 0.132779
327.908 0.455317
330.677 0.494662
333.449 1.039284
336.223 1.278847
338.999 0.605553
341.777 1.022909
344.558 0.713934
347.341 1.475918
350.126 1.101011
352.913 3.896857
355.703 1.474252
358.495 1.164810
361.289 4.042142
364.085 1.714595
366.884 1.110357
369.685 4.136974
372.488 1.039361
375.293 1.209201
378.1 4.253265
380.91 4.341138
383.722 1.734492
386.536 4.371972
389.352 1.831009
392.171 1.317599
394.991 1.089525
397.814 1.079807
400.639 1.042211
403.466 0.932225
406.295 0.803882
409.127 0.679550
411.961 0.711944
414.796 0.490559
417.634 0.527505
420.474 0.466162
423.316 0.442652
426.161 0.411493
429.007 0.419425
431.855 0.395677
434.706 0.412258
437.559 0.419012
440.413 0.397156
443.27 0.390925
446.129 0.473806
448.99 0.445050
451.853 0.493486
454.719 0.461294
457.586 0.570026
460.455 0.614481
463.327 0.601061
466.2 0.637861
469.076 0.714000
471.953 0.782455
474.833 0.912440
477.714 0.803531
480.598 1.027186
483.484 1.095034
486.372 1.021985
489.261 1.150838
492.153 1.112588
495.047 1.264699
497.942 1.355206
500.84 1.196799
503.74 1.188069
506.641 1.240847
509.545 1.173937
512.451 1.189042
515.358 1.295339
518.268 1.245037
521.179 1.204482
524.093 1.020856
527.008 1.060028
529.925 1.026397
532.845 0.976394
535.766 0.806661
538.689 0.826035
541.614 0.687881
544.541 0.658386
547.47 0.578291
550.401 0.490209
553.333 0.433720
556.268 0.406189
559.204 0.380365
562.143 0.331260
565.083 0.295266
568.025 0.261304
570.969 0.247257
573.915 0.224139
576.863 0.200116
579.812 0.188753
582.764 0.162448
585.717 0.164224
588.672 0.145617
591.629 0.151120
594.587 0.134346
597.548 0.141802
600.51 0.118998
603.475 0.121991
606.441 0.106988
609.409 0.116853
612.378 0.121442
615.35 0.115960
618.323 0.108294
621.298 0.123713
624.274 0.109138
627.253 0.081973
630.233 0.099322
633.215 0.129109
636.199 0.115866
639.185 0.088935
642.172 0.091144
645.161 0.096563
648.152 0.096598
651.144 0.119473
654.139 0.096519
657.135 0.104278
660.133 0.171383
663.132 0.091183
666.133 0.125384
669.136 0.126569
672.14 0.076852
675.147 0.110267
678.154 0.099905
681.164 0.103616
684.175 0.107972
687.188 0.085791
690.203 0.079216
693.219 0.061131
696.237 0.078290
699.257 0.098375
702.278 0.112944
705.301 0.084354
708.325 0.065061
711.351 0.071571
714.379 0.055574
717.409 0.070129
720.439 0.052381
723.472 0.088557
726.506 0.059799
729.542 0.074541
732.58 0.112598
735.619 0.110761
738.659 0.107739
741.701 0.070541
744.745 0.081589
747.79 0.064894
750.837 0.081195
753.886 0.090731
756.936 0.084198
759.987 0.088019
763.04 0.076422
766.095 0.106662
769.151 0.088051
772.209 0.093563
775.268 0.051417
778.329 0.083338
781.391 0.079824
784.455 0.084898
787.52 0.060658
790.587 0.111919
793.655 0.078035
796.725 0.082767
799.796 0.130569
802.869 0.057214
805.943 0.023631
809.019 0.102511
812.096 0.046644
815.174 0.062421
818.254 0.081186
821.336 0.157046
824.419 0.122706
827.503 0.119258
830.589 0.120477
833.676 0.180966
836.765 0.049438
839.855 0.083216
842.946 -0.025214
846.039 0.055788
849.133 0.162228
852.229 0.199604
855.326 0.066245
858.424 0.029729
861.524 0.288975
864.625 0.172854
867.728 -0.063584
870.832 0.121676
873.937 0.152046
877.044 0.043094
880.152 0.104042
883.261 0.019786
886.372 0.065354
889.484 0.207580
892.598 0.230527
895.712 0.073968
898.828 0.170515
901.946 0.066947
905.064 0.113254
908.184 0.255320
911.306 0.034731
914.428 0.243407
917.552 0.123515
920.677 -0.071557
923.804 0.215465
926.931 -0.167142
930.06 0.363132
933.191 0.025836
936.322 -0.169931
939.455 0.014178
942.589 -0.212976
945.724 0.403975
948.861 0.721222
951.998 0.036846
955.137 -0.280468
958.278 -0.414326
961.419 -0.222427
964.562 3.252853
967.705 0.253015
970.85 -0.358810
973.997 -0.159363
977.144 0.293294
980.293 1.490086
983.442 -0.549808
986.593 0.162190
989.746 2.123852
992.899 2.866287
996.053 2.866287
999.209 -2.204120
1002.37 -0.180434
1005.52 3.183555
1008.68 2.691965
1011.84 1.792975
1015 -2.809560
1018.17 0.029236
1021.33 -3.313445
1023.03 0.097746