Folder: Auto_Polymerization/Auto_Polymerization/Data/UV_VIS_Spectra/MRG-061-F-3_pure_compounds_spectra_test (part 2)

File: DMSO+Anisole_spectrum_2025-06-19_14-50-05.txt
# Wavelength (nm)	Intensity (a.u.)
197.7802	0.002290
200.4334	-0.000327
203.0892	0.001256
205.7475	0.001488
208.4084	0.001551
211.0718	0.000411
213.7376	0.001825
216.4060	0.001720
219.0769	0.001910
221.7503	0.000285
224.4262	0.002395
227.1046	0.000559
229.7855	0.001298
232.4688	0.001171
235.1546	-0.000137
237.8429	0.001108
240.5337	0.001150
243.2269	0.000306
245.9225	0.001804
248.6206	0.001234
251.3212	0.000939
254.0242	-0.002332
256.7296	0.001002
259.4375	0.000264
262.1477	0.001403
264.8604	0.001509
267.5755	0.000116
270.2931	0.000601
273.0130	0.001572
275.7353	0.001340
278.4600	0.000032
281.1871	0.002184
283.9166	0.000876
286.6484	-0.000454
289.3827	0.000728
292.1193	-0.000137
294.8582	0.001614
297.5995	0.000243
300.3432	0.000517
303.0892	0.000390
305.8376	-0.000200
308.5883	0.001488
311.3413	0.000728
314.0967	0.000770
316.8543	0.002923
319.6143	0.001846
322.3766	0.001804
325.1412	0.001488
327.9082	0.003070
330.6774	0.003302
333.4489	0.003218
336.2227	0.006003
338.9987	0.005349
341.7771	0.006383
344.5577	0.006552
347.3406	0.007333
350.1257	0.007607
352.9131	0.008240
355.7027	0.008789
358.4946	0.008240
361.2888	0.010393
364.0851	0.010941
366.8837	0.012039
369.6845	0.009591
372.4876	0.012714
375.2928	0.015921
378.1003	0.017103
380.9100	0.018390
383.7219	0.020648
386.5359	0.021661
389.3522	0.022336
392.1706	0.027949
394.9912	0.030144
397.8140	0.032908
400.6390	0.031811
403.4661	0.030946
406.2954	0.033246
409.1269	0.033668
411.9605	0.031663
414.7962	0.034195
417.6341	0.033963
420.4741	0.037424
423.3162	0.039386
426.1605	0.038331
429.0068	0.037424
431.8553	0.035293
434.7059	0.039196
437.5586	0.040821
440.4135	0.042045
443.2703	0.050823
446.1293	0.049178
448.9904	0.049009
451.8535	0.046139
454.7188	0.042193
457.5860	0.047067
460.4554	0.045210
463.3268	0.047553
466.2003	0.052343
469.0758	0.043142
471.9533	0.038901
474.8329	0.044113
477.7145	0.043100
480.5982	0.049051
483.4838	0.046856
486.3715	0.157387
489.2612	0.050802
492.1529	0.047722
495.0466	0.046582
497.9423	0.049979
500.8400	0.048270
503.7397	0.054685
506.6414	0.049135
509.5450	0.045506
512.4506	0.043923
515.3582	0.038437
518.2677	0.039091
521.1792	0.035082
524.0927	0.037930
527.0081	0.033837
529.9254	0.038943
532.8447	0.039007
535.7659	0.042509
538.6890	0.041454
541.6140	0.043818
544.5410	0.048629
547.4699	0.049621
550.4007	0.046434
553.3333	0.048587
556.2679	0.051710
559.2044	0.046223
562.1427	0.052934
565.0829	0.059391
568.0250	0.077327
570.9690	0.151204
573.9149	0.188090
576.8626	0.212188
579.8121	0.236962
582.7635	0.290497
585.7167	0.253421
588.6718	0.209487
591.6288	0.135842
594.5875	0.175408
597.5481	0.152808
600.5105	0.184756
603.4747	0.190411
606.4407	0.159075
609.4085	0.131432
612.3781	0.128668
615.3495	0.122042
618.3227	0.106574
621.2977	0.072031
624.2745	0.081315
627.2530	0.070786
630.2333	0.058167
633.2154	0.044366
636.1992	0.040610
639.1848	0.039661
642.1721	0.031583
645.1612	0.026648
648.1520	0.027822
651.1445	0.026603
654.1388	0.031437
657.1348	0.828135
660.1325	0.050460
663.1319	0.021454
666.1330	0.023290
669.1359	0.019909
672.1404	0.030081
675.1466	0.025037
678.1545	0.026979
681.1641	0.031937
684.1754	0.030798
687.1883	0.042889
690.2029	0.032444
693.2192	0.036348
696.2371	0.027527
699.2567	0.032676
702.2779	0.028097
705.3008	0.023687
708.3253	0.036875
711.3514	0.027696
714.3791	0.031537
717.4085	0.026345
720.4395	0.026746
723.4721	0.026261
726.5063	0.030671
729.5421	0.035335
732.5795	0.037508
735.6185	0.046371
738.6591	0.037508
741.7013	0.032592
744.7450	0.027253
747.7903	0.028456
750.8372	0.038859
753.8856	0.042108
756.9356	0.048059
759.9872	0.057196
763.0403	0.045042
766.0949	0.045316
769.1510	0.046730
772.2087	0.041792
775.2679	0.027696
778.3287	0.023075
781.3909	0.031494
784.4547	0.031558
787.5199	0.027358
790.5867	0.025860
793.6550	0.019677
796.7247	0.020247
799.7959	0.020395
802.8686	0.015668
805.9428	0.018116
809.0185	0.021724
812.0956	0.015225
815.1742	0.014866
818.2542	0.014149
821.3357	0.014444
824.4186	0.011722
827.5029	0.013030
830.5887	0.008873
833.6759	0.009844
836.7646	0.007903
839.8546	0.007502
842.9461	0.004906
846.0390	0.005180
849.1333	0.003746
852.2289	0.006995
855.3260	0.011469
858.4245	0.009570
861.5243	0.006088
864.6255	0.005560
867.7281	0.004864
870.8321	0.005159
873.9374	0.004379
877.0441	0.005919
880.1521	0.007776
883.2615	0.004948
886.3722	0.006088
889.4843	0.005223
892.5977	0.004948
895.7124	0.004442
898.8284	0.003513
901.9458	0.004315
905.0644	0.004379
908.1844	0.004231
911.3057	0.003619
914.4283	0.003809
917.5521	0.004927
920.6773	0.002754
923.8037	0.004168
926.9314	0.002606
930.0604	0.002901
933.1906	0.002015
936.3221	0.001467
939.4549	0.002142
942.5889	0.001277
945.7241	0.001994
948.8606	0.000644
951.9983	0.002585
955.1373	-0.000032
958.2775	0.001488
961.4189	-0.000264
964.5615	0.000897
967.7053	0.000538
970.8504	0.000032
973.9966	-0.000369
977.1440	0.001066
980.2926	0.000011
983.4424	0.000053
986.5934	0.000517
989.7456	0.000306
992.8989	-0.000433
996.0534	0.000960
999.2090	-0.000834
1002.37	0.000179
1005.52	0.000348
1008.68	-0.000665
1011.84	0.000116
1015	0.000179
1018.17	0.001403
1021.33	0.001171
1023.03	0.000559

File: DMSO+Anisole_spectrum_average.txt
# Wavelength	Average Intensity
197.78 0.000842
200.433 -0.000073
203.089 0.000800
205.748 0.000532
208.408 0.000546
211.072 -0.000185
213.738 0.000891
216.406 0.000863
219.077 0.001151
221.75 0.000258
224.426 0.000947
227.105 0.000201
229.786 0.000146
232.469 0.000363
235.155 -0.000094
237.843 0.000406
240.534 0.000743
243.227 -0.000452
245.923 0.001207
248.621 0.000454
251.321 0.000504
254.024 -0.000551
256.73 0.001271
259.438 0.000497
262.148 0.001045
264.86 0.000863
267.575 0.000230
270.293 0.000342
273.013 0.001264
275.735 0.001052
278.46 0.000729
281.187 0.001383
283.917 0.000560
286.648 0.000328
289.383 0.000877
292.119 -0.000038
294.858 0.000694
297.599 0.001039
300.343 0.001207
303.089 0.000447
305.838 0.000645
308.588 0.001334
311.341 0.000884
314.097 0.000750
316.854 0.001918
319.614 0.001896
322.377 0.002213
325.141 0.002213
327.908 0.003001
330.677 0.003282
333.449 0.003408
336.223 0.004998
338.999 0.005153
341.777 0.005371
344.558 0.006918
347.341 0.007692
350.126 0.008163
352.913 0.008311
355.703 0.009570
358.495 0.009366
361.289 0.010175
364.085 0.010034
366.884 0.011174
369.685 0.011624
372.488 0.012102
375.293 0.016469
378.1 0.017750
380.91 0.018959
383.722 0.021435
386.536 0.022131
389.352 0.023869
392.171 0.026992
394.991 0.029833
397.814 0.032823
400.639 0.032098
403.466 0.032168
406.295 0.033575
409.127 0.033842
411.961 0.032329
414.796 0.034855
417.634 0.033357
420.474 0.037014
423.316 0.040939
426.161 0.036648
429.007 0.038055
431.855 0.037746
434.706 0.039321
437.559 0.041916
440.413 0.041389
443.27 0.051306
446.129 0.049843
448.99 0.049069
451.853 0.046966
454.719 0.042444
457.586 0.046798
460.455 0.047564
463.327 0.047001
466.2 0.053071
469.076 0.043386
471.953 0.040362
474.833 0.045025
477.714 0.043527
480.598 0.049934
483.484 0.049582
486.372 0.158248
489.261 0.051003
492.153 0.048338
495.047 0.049266
497.942 0.047782
500.84 0.048176
503.74 0.054752
506.641 0.050694
509.545 0.045560
512.451 0.043597
515.358 0.039504
518.268 0.038653
521.179 0.037310
524.093 0.036529
527.008 0.036191
529.925 0.038308
532.845 0.038168
535.766 0.044449
538.689 0.042479
541.614 0.044505
544.541 0.048858
547.47 0.047628
550.401 0.046137
553.333 0.049526
556.268 0.052403
559.204 0.045517
562.143 0.054767
565.083 0.059676
568.025 0.077385
570.969 0.148599
573.915 0.192036
576.863 0.215282
579.812 0.236945
582.764 0.291769
585.717 0.256314
588.672 0.211414
591.629 0.138899
594.587 0.174967
597.548 0.155997
600.51 0.185904
603.475 0.188428
606.441 0.160702
609.409 0.132822
612.378 0.128659
615.35 0.124045
618.323 0.107031
621.298 0.073700
624.274 0.084201
627.253 0.069346
630.233 0.057707
633.215 0.044800
636.199 0.041564
639.185 0.040488
642.172 0.031333
645.161 0.026400
648.152 0.028531
651.144 0.027283
654.139 0.031663
657.135 0.828557
660.133 0.052063
663.132 0.021117
666.133 0.022506
669.136 0.019845
672.14 0.030754
675.147 0.025648
678.154 0.027484
681.164 0.032428
684.175 0.031451
687.188 0.042795
690.203 0.032661
693.219 0.037521
696.237 0.028419
699.257 0.032886
702.278 0.028968
705.301 0.023855
708.325 0.036761
711.351 0.030037
714.379 0.032675
717.409 0.026414
720.439 0.027301
723.472 0.027688
726.506 0.031605
729.542 0.034946
732.58 0.039230
735.619 0.047311
738.659 0.038604
741.701 0.033132
744.745 0.029566
747.79 0.029249
750.837 0.038273
753.886 0.041079
756.936 0.048887
759.987 0.058044
763.04 0.046938
766.095 0.047156
769.151 0.047037
772.209 0.040390
775.268 0.028490
778.329 0.024185
781.391 0.032562
784.455 0.030881
787.52 0.028089
790.587 0.025029
793.655 0.022779
796.725 0.021372
799.796 0.020831
802.869 0.016878
805.943 0.018524
809.019 0.021372
812.096 0.016118
815.174 0.015309
818.254 0.013888
821.336 0.015056
824.419 0.010787
827.503 0.012693
830.589 0.009788
833.676 0.009450
836.765 0.008142
839.855 0.008135
842.946 0.005209
846.039 0.006152
849.133 0.003732
852.229 0.006468
855.326 0.012229
858.424 0.010386
861.524 0.005505
864.625 0.005870
867.728 0.005315
870.832 0.005786
873.937 0.005118
877.044 0.004822
880.152 0.008044
883.261 0.005800
886.372 0.006532
889.484 0.005596
892.598 0.004900
895.712 0.004703
898.828 0.005111
901.946 0.004358
905.064 0.004028
908.184 0.003964
911.306 0.004295
914.428 0.003536
917.552 0.004035
920.677 0.003444
923.804 0.003760
926.931 0.002762
930.06 0.002635
933.191 0.002065
936.322 0.002115
939.455 0.002073
942.589 0.000898
945.724 0.001193
948.861 0.001482
951.998 0.001193
955.137 0.000433
958.278 0.001299
961.419 0.000813
964.562 0.000652
967.705 0.000272
970.85 0.000518
973.997 -0.000326
977.144 0.001468
980.293 0.000462
983.442 0.000363
986.593 0.000159
989.746 0.000012
992.899 -0.000038
996.053 0.001102
999.209 -0.000600
1002.37 -0.000129
1005.52 0.001249
1008.68 -0.000017
1011.84 0.000511
1015 0.000455
1018.17 0.001123
1021.33 0.000821
1023.03 -0.000389

File: DMSO+Anisole_spectrum_average_absorbance.txt
# Wavelength	Absorbance
197.78 -0.046790
200.433 3.008600
203.089 0.131538
205.748 -0.043767
208.408 0.233619
211.072 3.104487
213.738 0.035549
216.406 -0.034008
219.077 -0.070736
221.75 0.771935
224.426 -0.257019
227.105 -0.008730
229.786 0.627338
232.469 -0.600865
235.155 3.406199
237.843 -0.757268
240.534 -2.870989
243.227 2.710117
245.923 -0.055583
248.621 0.070485
251.321 0.033966
254.024 2.872739
256.73 -0.078430
259.438 0.279535
262.148 -0.029222
264.86 -0.273253
267.575 0.437613
270.293 -2.534026
273.013 -0.302407
275.735 -3.022016
278.46 0.072780
281.187 -3.140822
283.917 0.118099
286.648 0.424643
289.383 0.131817
292.119 3.059185
294.858 0.233457
297.599 -0.747103
300.343 0.188739
303.089 -0.292373
305.838 0.391564
308.588 0.117137
311.341 0.349994
314.097 -0.275178
316.854 -0.189077
319.614 -0.032819
322.377 0.115465
325.141 0.039193
327.908 0.031129
330.677 0.119345
333.449 0.122735
336.223 -0.032559
338.999 0.027670
341.777 0.088039
344.558 0.046848
347.341 0.013124
350.126 -0.001279
352.913 -0.022797
355.703 0.010536
358.495 -0.011559
361.289 0.034608
364.085 0.018473
366.884 0.015425
369.685 0.071618
372.488 0.097326
375.293 -0.034338
378.1 0.004067
380.91 0.063322
383.722 0.019318
386.536 0.026971
389.352 0.022548
392.171 0.013793
394.991 -0.005685
397.814 0.006892
400.639 0.031832
403.466 0.015085
406.295 0.029453
409.127 0.008992
411.961 0.024192
414.796 0.003673
417.634 0.018292
420.474 0.036572
423.316 0.019499
426.161 0.009529
429.007 0.023847
431.855 0.026360
434.706 0.021210
437.559 0.011503
440.413 0.040200
443.27 0.002086
446.129 0.026475
448.99 0.025597
451.853 0.020084
454.719 0.022462
457.586 0.020898
460.455 0.036296
463.327 0.014708
466.2 0.018582
469.076 0.009936
471.953 0.001128
474.833 0.008955
477.714 0.010800
480.598 0.036019
483.484 0.034691
486.372 0.022183
489.261 0.019237
492.153 0.013873
495.047 0.015414
497.942 0.015394
500.84 0.018711
503.74 0.008258
506.641 0.023170
509.545 0.028704
512.451 0.002751
515.358 0.029720
518.268 0.029660
521.179 0.012144
524.093 0.021818
527.008 0.020336
529.925 0.023919
532.845 0.014623
535.766 -0.005764
538.689 0.012774
541.614 0.014491
544.541 0.024025
547.47 0.022218
550.401 -0.001150
553.333 0.021396
556.268 0.021929
559.204 0.003724
562.143 0.014328
565.083 0.014331
568.025 0.015171
570.969 0.015384
573.915 0.025583
576.863 0.025510
579.812 0.020909
582.764 0.013192
585.717 0.019136
588.672 0.014939
591.629 0.022450
594.587 0.021878
597.548 0.024452
600.51 0.020648
603.475 0.025261
606.441 0.015497
609.409 0.018991
612.378 0.022467
615.35 0.037648
618.323 0.014811
621.298 0.016954
624.274 0.022714
627.253 0.013266
630.233 0.034144
633.215 0.013505
636.199 0.025564
639.185 0.001253
642.172 0.012231
645.161 0.018250
648.152 0.020587
651.144 0.035898
654.139 0.043032
657.135 0.040278
660.133 0.024181
663.132 0.031298
666.133 0.034753
669.136 0.054821
672.14 0.041028
675.147 0.024300
678.154 0.025395
681.164 0.026609
684.175 0.039492
687.188 0.020718
690.203 0.029691
693.219 0.026786
696.237 0.024943
699.257 0.041133
702.278 0.021483
705.301 0.011179
708.325 0.022627
711.351 0.002120
714.379 0.016739
717.409 0.027274
720.439 0.021173
723.472 0.004866
726.506 0.032960
729.542 0.023652
732.58 0.045759
735.619 0.014862
738.659 0.025537
741.701 0.006234
744.745 0.001466
747.79 0.037721
750.837 0.008995
753.886 0.026703
756.936 0.023322
759.987 0.023986
763.04 0.019415
766.095 0.027374
769.151 0.017943
772.209 0.011334
775.268 0.010259
778.329 0.024609
781.391 0.053090
784.455 0.002342
787.52 0.020328
790.587 0.022403
793.655 0.026711
796.725 0.042533
799.796 0.026173
802.869 -0.024724
805.943 0.025782
809.019 0.060401
812.096 0.000162
815.174 0.037041
818.254 0.039090
821.336 0.068074
824.419 0.013360
827.503 0.066228
830.589 0.027465
833.676 0.080596
836.765 0.032912
839.855 -0.009444
842.946 -0.001922
846.039 0.013484
849.133 0.171098
852.229 -0.047567
855.326 0.080841
858.424 -0.031561
861.524 0.165847
864.625 0.081640
867.728 -0.016912
870.832 0.044412
873.937 0.038001
877.044 0.003320
880.152 0.048481
883.261 0.017609
886.372 0.014708
889.484 -0.093605
892.598 0.093850
895.712 0.045046
898.828 0.052293
901.946 0.031886
905.064 0.123589
908.184 -0.033823
911.306 0.030361
914.428 -0.038638
917.552 0.063473
920.677 -0.023047
923.804 0.042022
926.931 -0.100780
930.06 -0.084521
933.191 0.078831
936.322 -0.173022
939.455 0.130869
942.589 0.299577
945.724 0.396262
948.861 0.094441
951.998 0.168378
955.137 0.203618
958.278 -0.286887
961.419 -0.256878
964.562 0.438605
967.705 0.717719
970.85 -0.004212
973.997 2.994757
977.144 0.025841
980.293 0.343958
983.442 0.050754
986.593 0.618804
989.746 1.044670
992.899 2.866287
996.053 -0.175894
999.209 0.000000
1002.37 2.599883
1005.52 0.086992
1008.68 2.691965
1011.84 0.163735
1015 -2.658011
1018.17 0.181345
1021.33 -2.914343
1023.03 2.812913

File: DMSO+CTA_spectrum_2025-06-19_14-56-30.txt
# Wavelength (nm)	Intensity (a.u.)
197.7802	0.000028
200.4334	-0.000035
203.0892	0.001315
205.7475	0.000978
208.4084	0.001315
211.0718	-0.000141
213.7376	0.001125
216.4060	-0.000943
219.0769	0.001463
221.7503	-0.000964
224.4262	0.000302
227.1046	-0.000563
229.7855	0.001062
232.4688	0.000113
235.1546	0.000893
237.8429	0.000260
240.5337	-0.001280
243.2269	-0.000394
245.9225	0.000640
248.6206	0.000788
251.3212	0.000324
254.0242	0.000450
256.7296	0.000725
259.4375	0.000028
262.1477	0.001801
264.8604	0.001252
267.5755	0.000155
270.2931	0.001421
273.0130	-0.000035
275.7353	0.002603
278.4600	-0.000816
281.1871	0.000113
283.9166	0.001210
286.6484	0.000914
289.3827	0.000830
292.1193	0.000324
294.8582	0.000387
297.5995	-0.000478
300.3432	0.001759
303.0892	0.000070
305.8376	0.000999
308.5883	-0.000141
311.3413	0.000028
314.0967	-0.001787
316.8543	0.000577
319.6143	-0.000415
322.3766	0.001590
325.1412	0.000767
327.9082	0.000746
330.6774	0.001505
333.4489	0.000028
336.2227	-0.000288
338.9987	0.000661
341.7771	0.000492
344.5577	0.000725
347.3406	-0.000225
350.1257	0.000260
352.9131	0.000197
355.7027	0.001927
358.4946	0.000535
361.2888	0.001104
364.0851	0.001083
366.8837	-0.000309
369.6845	0.001358
372.4876	0.001294
375.2928	0.003130
378.1003	0.003404
380.9100	0.005283
383.7219	0.008933
386.5359	0.014905
389.3522	0.017142
392.1706	0.020054
394.9912	0.023093
397.8140	0.027651
400.6390	0.029191
403.4661	0.028537
406.2954	0.031914
409.1269	0.032969
411.9605	0.030901
414.7962	0.031492
417.6341	0.033623
420.4741	0.036050
423.3162	0.038603
426.1605	0.032399
429.0068	0.036345
431.8553	0.036324
434.7059	0.035818
437.5586	0.037886
440.4135	0.035923
443.2703	0.043879
446.1293	0.043879
448.9904	0.040587
451.8535	0.039046
454.7188	0.034868
457.5860	0.037464
460.4554	0.035374
463.3268	0.032441
466.2003	0.036556
469.0758	0.028474
471.9533	0.023241
474.8329	0.024000
477.7145	0.024802
480.5982	0.027419
483.4838	0.024317
486.3715	0.071712
489.2612	0.021679
492.1529	0.018809
495.0466	0.018408
497.9423	0.016783
500.8400	0.015032
503.7397	0.017416
506.6414	0.015623
509.5450	0.015749
512.4506	0.012436
515.3582	0.011508
518.2677	0.010811
521.1792	0.011149
524.0927	0.012035
527.0081	0.012858
529.9254	0.013534
532.8447	0.013871
535.7659	0.016235
538.6890	0.019041
541.6140	0.021278
544.5410	0.023663
547.4699	0.026849
550.4007	0.030183
553.3333	0.031006
556.2679	0.035712
559.2044	0.031956
562.1427	0.042275
565.0829	0.046601
568.0250	0.063715
570.9690	0.126473
573.9149	0.163549
576.8626	0.191658
579.8121	0.212908
582.7635	0.262413
585.7167	0.235846
588.6718	0.198368
591.6288	0.128245
594.5875	0.169606
597.5481	0.147069
600.5105	0.177308
603.4747	0.182119
606.4407	0.160025
609.4085	0.130419
612.3781	0.122717
615.3495	0.121556
618.3227	0.102712
621.2977	0.072704
624.2745	0.084205
627.2530	0.068969
630.2333	0.058059
633.2154	0.042591
636.1992	0.043372
639.1848	0.038244
642.1721	0.029750
645.1612	0.026242
648.1520	0.027380
651.1445	0.027750
654.1388	0.032905
657.1348	0.815006
660.1325	0.050946
663.1319	0.019536
666.1330	0.023245
669.1359	0.019780
672.1404	0.032716
675.1466	0.025836
678.1545	0.027693
681.1641	0.032716
684.1754	0.033011
687.1883	0.043879
690.2029	0.032927
693.2192	0.036113
696.2371	0.027524
699.2567	0.035902
702.2779	0.029023
705.3008	0.023578
708.3253	0.036282
711.3514	0.032716
714.3791	0.034172
717.4085	0.025878
720.4395	0.027567
723.4721	0.028031
726.5063	0.032420
729.5421	0.033686
732.5795	0.039468
735.6185	0.045103
738.6591	0.037907
741.7013	0.033750
744.7450	0.029592
747.7903	0.028390
750.8372	0.039468
753.8856	0.040587
756.9356	0.049281
759.9872	0.056624
763.0403	0.047529
766.0949	0.046643
769.1510	0.043984
772.2087	0.038308
775.2679	0.028010
778.3287	0.025414
781.3909	0.033602
784.4547	0.030479
787.5199	0.026638
790.5867	0.023473
793.6550	0.023156
796.7247	0.020793
799.7959	0.020772
802.8686	0.016256
805.9428	0.019189
809.0185	0.021974
812.0956	0.016192
815.1742	0.014990
818.2542	0.012711
821.3357	0.015580
824.4186	0.011297
827.5029	0.012774
830.5887	0.008807
833.6759	0.008617
836.7646	0.010136
839.8546	0.006929
842.9461	0.005789
846.0390	0.005283
849.1333	0.004713
852.2289	0.005473
855.3260	0.012901
858.4245	0.009714
861.5243	0.006507
864.6255	0.006127
867.7281	0.005536
870.8321	0.005409
873.9374	0.003489
877.0441	0.006633
880.1521	0.008680
883.2615	0.006380
886.3722	0.005641
889.4843	0.005050
892.5977	0.005219
895.7124	0.004755
898.8284	0.004016
901.9458	0.005325
905.0644	0.003489
908.1844	0.004101
911.3057	0.003805
914.4283	0.002349
917.5521	0.005219
920.6773	0.004586
923.8037	0.002392
926.9314	0.002307
930.0604	0.001547
933.1906	0.002392
936.3221	0.002434
939.4549	0.001611
942.5889	0.000661
945.7241	0.001231
948.8606	0.000936
951.9983	0.001294
955.1373	0.000113
958.2775	0.000239
961.4189	0.000577
964.5615	0.001315
967.7053	0.001737
970.8504	0.000324
973.9966	0.000070
977.1440	0.000387
980.2926	-0.001111
983.4424	-0.000035
986.5934	-0.001787
989.7456	0.001421
992.8989	0.000113
996.0534	-0.000309
999.2090	0.000661
1002.37	0.001294
1005.52	0.000450
1008.68	-0.000795
1011.84	0.000366
1015	0.000155
1018.17	0.000070
1021.33	-0.001132
1023.03	-0.000183

File: DMSO+CTA_spectrum_2025-06-19_14-56-46.txt
# Wavelength (nm)	Intensity (a.u.)
197.7802	-0.000185
200.4334	0.001863
203.0892	-0.000522
205.7475	-0.001156
208.4084	-0.000227
211.0718	0.000575
213.7376	-0.000417
216.4060	0.000765
219.0769	-0.000290
221.7503	0.000026
224.4262	0.001293
227.1046	-0.000354
229.7855	0.000533
232.4688	0.000723
235.1546	0.001145
237.8429	-0.001346
240.5337	-0.000607
243.2269	-0.000227
245.9225	0.000090
248.6206	-0.000396
251.3212	0.000997
254.0242	-0.000417
256.7296	0.000702
259.4375	0.000702
262.1477	-0.000691
264.8604	-0.001156
267.5755	-0.000185
270.2931	-0.000565
273.0130	-0.000522
275.7353	-0.000565
278.4600	-0.000227
281.1871	0.000259
283.9166	0.000681
286.6484	-0.002127
289.3827	0.001673
292.1193	-0.000501
294.8582	0.001799
297.5995	-0.000016
300.3432	0.001230
303.0892	0.000090
305.8376	0.000364
308.5883	0.000026
311.3413	0.000596
314.0967	-0.000586
316.8543	0.000850
319.6143	0.000153
322.3766	-0.000058
325.1412	-0.001873
327.9082	-0.000311
330.6774	-0.000100
333.4489	0.000427
336.2227	0.000343
338.9987	-0.001325
341.7771	-0.000544
344.5577	-0.000185
347.3406	-0.000733
350.1257	0.000449
352.9131	-0.000459
355.7027	0.000174
358.4946	-0.001113
361.2888	0.000913
364.0851	-0.001092
366.8837	0.001018
369.6845	-0.000142
372.4876	-0.000332
375.2928	0.002116
378.1003	0.003847
380.9100	0.004396
383.7219	0.009567
386.5359	0.013620
389.3522	0.015329
392.1706	0.019234
394.9912	0.026390
397.8140	0.028669
400.6390	0.028268
403.4661	0.028859
406.2954	0.033060
409.1269	0.030231
411.9605	0.030928
414.7962	0.032194
417.6341	0.032342
420.4741	0.033799
423.3162	0.041756
426.1605	0.033841
429.0068	0.035740
431.8553	0.037514
434.7059	0.038379
437.5586	0.038632
440.4135	0.036437
443.2703	0.044648
446.1293	0.042537
448.9904	0.042199
451.8535	0.036859
454.7188	0.036817
457.5860	0.036458
460.4554	0.035107
463.3268	0.033609
466.2003	0.036733
469.0758	0.027741
471.9533	0.025567
474.8329	0.025503
477.7145	0.023730
480.5982	0.026200
483.4838	0.025187
486.3715	0.073460
489.2612	0.020353
492.1529	0.020860
495.0466	0.018960
497.9423	0.016744
500.8400	0.015308
503.7397	0.017546
506.6414	0.015667
509.5450	0.014337
512.4506	0.012733
515.3582	0.012037
518.2677	0.012395
521.1792	0.011636
524.0927	0.012374
527.0081	0.011382
529.9254	0.013155
532.8447	0.014781
535.7659	0.018052
538.6890	0.020733
541.6140	0.023055
544.5410	0.024828
547.4699	0.025292
550.4007	0.026516
553.3333	0.031012
556.2679	0.034263
559.2044	0.031477
562.1427	0.041503
565.0829	0.048701
568.0250	0.066769
570.9690	0.124498
573.9149	0.168064
576.8626	0.192422
579.8121	0.213087
582.7635	0.268515
585.7167	0.237846
588.6718	0.198037
591.6288	0.130197
594.5875	0.166819
597.5481	0.146555
600.5105	0.179758
603.4747	0.185246
606.4407	0.158629
609.4085	0.128530
612.3781	0.125532
615.3495	0.127031
618.3227	0.106662
621.2977	0.071455
624.2745	0.081143
627.2530	0.067106
630.2333	0.057735
633.2154	0.043930
636.1992	0.045745
639.1848	0.039603
642.1721	0.031097
645.1612	0.025686
648.1520	0.029295
651.1445	0.028138
654.1388	0.032890
657.1348	0.825259
660.1325	0.049237
663.1319	0.019202
666.1330	0.022976
669.1359	0.019593
672.1404	0.030231
675.1466	0.024237
678.1545	0.025546
681.1641	0.030654
684.1754	0.030379
687.1883	0.041862
690.2029	0.032785
693.2192	0.037366
696.2371	0.029155
699.2567	0.033081
702.2779	0.027825
705.3008	0.024553
708.3253	0.037302
711.3514	0.029640
714.3791	0.032300
717.4085	0.027509
720.4395	0.026770
723.4721	0.026200
726.5063	0.032152
729.5421	0.035551
732.5795	0.039308
735.6185	0.044479
738.6591	0.039688
741.7013	0.031413
744.7450	0.028437
747.7903	0.030759
750.8372	0.037514
753.8856	0.041186
756.9356	0.050431
759.9872	0.057460
763.0403	0.046674
766.0949	0.050030
769.1510	0.044753
772.2087	0.036944
775.2679	0.026960
778.3287	0.025060
781.3909	0.035192
784.4547	0.029788
787.5199	0.028142
790.5867	0.024617
793.6550	0.021978
796.7247	0.020079
799.7959	0.020015
802.8686	0.014506
805.9428	0.018770
809.0185	0.021598
812.0956	0.016343
815.1742	0.014000
818.2542	0.014443
821.3357	0.014042
824.4186	0.010855
827.5029	0.013556
830.5887	0.008596
833.6759	0.006760
836.7646	0.007921
839.8546	0.007414
842.9461	0.005409
846.0390	0.005303
849.1333	0.003910
852.2289	0.005219
855.3260	0.011720
858.4245	0.010960
861.5243	0.005493
864.6255	0.005029
867.7281	0.005831
870.8321	0.004501
873.9374	0.003910
877.0441	0.003298
880.1521	0.007583
883.2615	0.006316
886.3722	0.005810
889.4843	0.004269
892.5977	0.004079
895.7124	0.003108
898.8284	0.004923
901.9458	0.002264
905.0644	0.005303
908.1844	0.003425
911.3057	0.003762
914.4283	0.003699
917.5521	0.005050
920.6773	0.003045
923.8037	0.002770
926.9314	0.001757
930.0604	0.002011
933.1906	0.001082
936.3221	0.000744
939.4549	0.000449
942.5889	0.000216
945.7241	0.000744
948.8606	0.000491
951.9983	0.001103
955.1373	0.001947
958.2775	0.000280
961.4189	-0.000079
964.5615	-0.000121
967.7053	0.000132
970.8504	0.000744
973.9966	-0.000691
977.1440	-0.000839
980.2926	-0.000100
983.4424	0.001462
986.5934	0.000617
989.7456	0.001103
992.8989	-0.000945
996.0534	0.000026
999.2090	-0.001071
1002.37	0.000005
1005.52	0.000807
1008.68	-0.000332
1011.84	-0.000037
1015	-0.001198
1018.17	0.000639
1021.33	-0.000058
1023.03	0.000280