Folder: Auto_Polymerization/Auto_Polymerization/Data/UV_VIS_Spectra/MRG-061-F5_spectra_while_stopped_with_alu_foil (part 2)

File: spectrum_2025-06-20_09-22-00_absorbance.txt
# Wavelength	Absorbance
197.78 2.878522
200.433 3.008600
203.089 1.636688
205.748 -0.529242
208.408 -0.070581
211.072 0.165967
213.738 -0.293556
216.406 -0.320453
219.077 0.341004
221.75 0.897997
224.426 -0.497626
227.105 -0.264242
229.786 -0.419697
232.469 0.014559
235.155 1.292256
237.843 1.851258
240.534 0.000000
243.227 -0.671359
245.923 -0.415728
248.621 2.727541
251.321 -0.329183
254.024 -0.215752
256.73 -0.196741
259.438 1.577951
262.148 -0.034591
264.86 -0.425733
267.575 -0.159701
270.293 -1.397940
273.013 -0.428546
275.735 -2.583199
278.46 -0.252859
281.187 -2.505150
283.917 0.216952
286.648 2.940516
289.383 -0.063170
292.119 1.233110
294.858 -0.076247
297.599 -0.488642
300.343 0.512291
303.089 -0.536381
305.838 0.069826
308.588 0.384960
311.341 0.223094
314.097 -0.441510
316.854 0.134730
319.614 3.245019
322.377 0.227197
325.141 0.195808
327.908 0.569875
330.677 0.647371
333.449 0.523937
336.223 1.256304
338.999 0.441751
341.777 3.818094
344.558 1.237494
347.341 3.899164
350.126 1.040167
352.913 1.486924
355.703 0.918096
358.495 1.454845
361.289 4.042142
364.085 4.019947
366.884 4.063634
369.685 1.209091
372.488 1.894626
375.293 1.184506
378.1 1.014467
380.91 1.897093
383.722 1.433462
386.536 1.208215
389.352 1.097835
392.171 0.784257
394.991 0.659048
397.814 0.536164
400.639 0.480986
403.466 0.351456
406.295 0.331040
409.127 0.334708
411.961 0.231995
414.796 0.241426
417.634 0.222665
420.474 0.229732
423.316 0.211384
426.161 0.203826
429.007 0.241192
431.855 0.219236
434.706 0.249598
437.559 0.264129
440.413 0.298807
443.27 0.290963
446.129 0.332227
448.99 0.376992
451.853 0.429275
454.719 0.408184
457.586 0.469425
460.455 0.538237
463.327 0.540563
466.2 0.661193
469.076 0.590761
471.953 0.697491
474.833 0.749390
477.714 0.889136
480.598 0.881326
483.484 1.106765
486.372 1.048626
489.261 1.064075
492.153 1.049509
495.047 1.210341
497.942 1.194147
500.84 1.136639
503.74 1.291813
506.641 1.416584
509.545 1.371318
512.451 1.317513
515.358 1.087034
518.268 1.077516
521.179 1.263615
524.093 0.809939
527.008 0.863686
529.925 0.908151
532.845 1.023915
535.766 0.760428
538.689 0.719106
541.614 0.680764
544.541 0.566058
547.47 0.535252
550.401 0.460302
553.333 0.450656
556.268 0.401457
559.204 0.313359
562.143 0.289253
565.083 0.235145
568.025 0.236795
570.969 0.210380
573.915 0.194758
576.863 0.167942
579.812 0.160516
582.764 0.136291
585.717 0.125190
588.672 0.111314
591.629 0.109404
594.587 0.094813
597.548 0.116801
600.51 0.094663
603.475 0.102919
606.441 0.080094
609.409 0.092353
612.378 0.088745
615.35 0.106093
618.323 0.082833
621.298 0.072994
624.274 0.074043
627.253 0.082965
630.233 0.080247
633.215 0.083562
636.199 0.092624
639.185 0.074236
642.172 0.091793
645.161 0.060475
648.152 0.059196
651.144 0.048004
654.139 0.112301
657.135 0.095232
660.133 0.155543
663.132 0.120301
666.133 0.047819
669.136 0.079517
672.14 0.064068
675.147 0.052401
678.154 0.073734
681.164 0.062120
684.175 0.034126
687.188 0.086287
690.203 0.088069
693.219 0.074540
696.237 0.069939
699.257 0.064143
702.278 0.074433
705.301 0.050182
708.325 0.041533
711.351 0.030252
714.379 0.035202
717.409 0.082088
720.439 0.093101
723.472 0.046845
726.506 0.060384
729.542 0.071297
732.58 0.132074
735.619 0.083636
738.659 0.082123
741.701 0.053228
744.745 0.074128
747.79 0.069870
750.837 0.074177
753.886 0.090731
756.936 0.079289
759.987 0.081718
763.04 0.073782
766.095 0.076516
769.151 0.077217
772.209 0.068274
775.268 0.061368
778.329 0.055934
781.391 0.118891
784.455 0.066597
787.52 0.057750
790.587 0.086493
793.655 0.065869
796.725 0.096008
799.796 0.093951
802.869 0.045352
805.943 0.046723
809.019 0.135239
812.096 0.080595
815.174 0.069883
818.254 0.059677
821.336 0.178155
824.419 0.113584
827.503 0.049811
830.589 0.089764
833.676 0.101448
836.765 0.130863
839.855 0.050389
842.946 -0.107662
846.039 0.083749
849.133 0.106953
852.229 0.002781
855.326 0.100604
858.424 0.026276
861.524 0.075887
864.625 0.063669
867.728 -0.075027
870.832 0.134138
873.937 0.194798
877.044 0.033817
880.152 0.094454
883.261 -0.011565
886.372 0.035684
889.484 -0.059134
892.598 0.022043
895.712 0.170262
898.828 0.128950
901.946 -0.033321
905.064 -0.005481
908.184 -0.045604
911.306 0.095945
914.428 0.003640
917.552 0.018621
920.677 0.286129
923.804 0.110976
926.931 0.164063
930.06 0.015906
933.191 -0.155988
936.322 -0.154780
939.455 0.019171
942.589 0.135250
945.724 0.127137
948.861 1.086313
951.998 -0.070951
955.137 -0.438876
958.278 -0.161390
961.419 -0.450249
964.562 -0.128623
967.705 0.014302
970.85 -0.453640
973.997 2.994757
977.144 0.041504
980.293 -0.122698
983.442 -0.058657
986.593 -0.167911
989.746 -0.964639
992.899 -0.061596
996.053 0.630759
999.209 0.000000
1002.37 -0.465697
1005.52 0.577173
1008.68 -0.256937
1011.84 -0.278907
1015 -3.096215
1018.17 0.442849
1021.33 -2.606381
1023.03 -0.184910

File: spectrum_2025-06-20_09-27-07.txt
# Wavelength (nm)	Intensity (a.u.)
197.7802	0.000311
200.4334	0.001281
203.0892	0.000100
205.7475	-0.000111
208.4084	0.000543
211.0718	0.000944
213.7376	0.000353
216.4060	0.000480
219.0769	0.000459
221.7503	0.000185
224.4262	0.000691
227.1046	0.000754
229.7855	0.000037
232.4688	0.000248
235.1546	0.001112
237.8429	0.001197
240.5337	0.001703
243.2269	0.000459
245.9225	0.001323
248.6206	0.000775
251.3212	0.000691
254.0242	-0.000026
256.7296	-0.000490
259.4375	0.001829
262.1477	0.001028
264.8604	0.000501
267.5755	0.000395
270.2931	0.001661
273.0130	0.001598
275.7353	0.001260
278.4600	0.000311
281.1871	-0.001165
283.9166	0.001155
286.6484	-0.000891
289.3827	0.000227
292.1193	-0.000026
294.8582	0.000817
297.5995	0.000206
300.3432	0.000965
303.0892	0.001218
305.8376	-0.000279
308.5883	0.000606
311.3413	0.001091
314.0967	0.000185
316.8543	0.001197
319.6143	-0.000385
322.3766	0.000353
325.1412	-0.000195
327.9082	0.001471
330.6774	-0.000216
333.4489	0.001007
336.2227	-0.000343
338.9987	0.001281
341.7771	0.000353
344.5577	-0.000364
347.3406	0.000501
350.1257	0.000859
352.9131	0.001028
355.7027	0.002104
358.4946	0.000648
361.2888	-0.000511
364.0851	0.000543
366.8837	0.001112
369.6845	0.000775
372.4876	0.002104
375.2928	0.000585
378.1003	0.000859
380.9100	0.002209
383.7219	0.001218
386.5359	0.000691
389.3522	0.001998
392.1706	0.003348
394.9912	0.006785
397.8140	0.008177
400.6390	0.010856
403.4661	0.011994
406.2954	0.016423
409.1269	0.016718
411.9605	0.018005
414.7962	0.019460
417.6341	0.019270
420.4741	0.021379
423.3162	0.024353
426.1605	0.021717
429.0068	0.021358
431.8553	0.022033
434.7059	0.023804
437.5586	0.022919
440.4135	0.021316
443.2703	0.026947
446.1293	0.024015
448.9904	0.022370
451.8535	0.021105
454.7188	0.017351
457.5860	0.015643
460.4554	0.014884
463.3268	0.014462
466.2003	0.012965
469.0758	0.010476
471.9533	0.008979
474.8329	0.008852
477.7145	0.007734
480.5982	0.007692
483.4838	0.006195
486.3715	0.017077
489.2612	0.003474
492.1529	0.003517
495.0466	0.003496
497.9423	0.002631
500.8400	0.003517
503.7397	0.001977
506.6414	0.003538
509.5450	0.003411
512.4506	0.001703
515.3582	0.003137
518.2677	0.002336
521.1792	0.002040
524.0927	0.003053
527.0081	0.004107
529.9254	0.004466
532.8447	0.006448
535.7659	0.006722
538.6890	0.008030
541.6140	0.011151
544.5410	0.011088
547.4699	0.014546
550.4007	0.015179
553.3333	0.022370
556.2679	0.022286
559.2044	0.023572
562.1427	0.029962
565.0829	0.032683
568.0250	0.046581
570.9690	0.094326
573.9149	0.131190
576.8626	0.150845
579.8121	0.172631
582.7635	0.220440
585.7167	0.201523
588.6718	0.167190
591.6288	0.112906
594.5875	0.145868
597.5481	0.126509
600.5105	0.154852
603.4747	0.161875
606.4407	0.138825
609.4085	0.117040
612.3781	0.112189
615.3495	0.107570
618.3227	0.092745
621.2977	0.061680
624.2745	0.073912
627.2530	0.061111
630.2333	0.054384
633.2154	0.037217
636.1992	0.039136
639.1848	0.034560
642.1721	0.024765
645.1612	0.022067
648.1520	0.025683
651.1445	0.024784
654.1388	0.029655
657.1348	0.740573
660.1325	0.041293
663.1319	0.017955
666.1330	0.020428
669.1359	0.017899
672.1404	0.027200
675.1466	0.024184
678.1545	0.022539
681.1641	0.029941
684.1754	0.026567
687.1883	0.037744
690.2029	0.029182
693.2192	0.035087
696.2371	0.025934
699.2567	0.030764
702.2779	0.025766
705.3008	0.019861
708.3253	0.033210
711.3514	0.026820
714.3791	0.028908
717.4085	0.024564
720.4395	0.023931
723.4721	0.024796
726.5063	0.028528
729.5421	0.032198
732.5795	0.034644
735.6185	0.041941
738.6591	0.036479
741.7013	0.027347
744.7450	0.027495
747.7903	0.026504
750.8372	0.034644
753.8856	0.038208
756.9356	0.042447
759.9872	0.053287
763.0403	0.040992
766.0949	0.042236
769.1510	0.040338
772.2087	0.033990
775.2679	0.028339
778.3287	0.023172
781.3909	0.031143
784.4547	0.027390
787.5199	0.024732
790.5867	0.022244
793.6550	0.020430
796.7247	0.018638
799.7959	0.020093
802.8686	0.014588
805.9428	0.015179
809.0185	0.020304
812.0956	0.014736
815.1742	0.015010
818.2542	0.012437
821.3357	0.012901
824.4186	0.008747
827.5029	0.011594
830.5887	0.008473
833.6759	0.009717
836.7646	0.006828
839.8546	0.008135
842.9461	0.005394
846.0390	0.005056
849.1333	0.005394
852.2289	0.006448
855.3260	0.013618
858.4245	0.009422
861.5243	0.004423
864.6255	0.005499
867.7281	0.005731
870.8321	0.004972
873.9374	0.005520
877.0441	0.005162
880.1521	0.007292
883.2615	0.005499
886.3722	0.005710
889.4843	0.004529
892.5977	0.005879
895.7124	0.003601
898.8284	0.005499
901.9458	0.005309
905.0644	0.003411
908.1844	0.003432
911.3057	0.004234
914.4283	0.003137
917.5521	0.004318
920.6773	0.003053
923.8037	0.001281
926.9314	0.001619
930.0604	0.003264
933.1906	0.001218
936.3221	0.002209
939.4549	0.001176
942.5889	0.000142
945.7241	0.001619
948.8606	0.000859
951.9983	0.000944
955.1373	0.002040
958.2775	0.002315
961.4189	0.000269
964.5615	0.001745
967.7053	0.001049
970.8504	0.002019
973.9966	0.000564
977.1440	0.000543
980.2926	0.001450
983.4424	0.000986
986.5934	0.000121
989.7456	0.000564
992.8989	0.001534
996.0534	0.000016
999.2090	0.001703
1002.37	-0.000385
1005.52	0.002336
1008.68	-0.000090
1011.84	0.001070
1015	0.000606
1018.17	0.000775
1021.33	0.000606
1023.03	0.000417

File: spectrum_2025-06-20_09-32-14.txt
# Wavelength (nm)	Intensity (a.u.)
197.7802	0.000731
200.4334	-0.001146
203.0892	-0.000661
205.7475	-0.000049
208.4084	-0.001231
211.0718	0.000436
213.7376	0.000731
216.4060	-0.000830
219.0769	-0.000366
221.7503	-0.001379
224.4262	0.000098
227.1046	-0.000113
229.7855	-0.000408
232.4688	0.000035
235.1546	0.002082
237.8429	-0.000345
240.5337	0.000288
243.2269	0.000035
245.9225	-0.000113
248.6206	0.000774
251.3212	0.000415
254.0242	-0.000598
256.7296	-0.001041
259.4375	-0.000049
262.1477	-0.000809
264.8604	-0.000197
267.5755	0.000710
270.2931	0.000098
273.0130	0.001407
275.7353	0.000141
278.4600	-0.000809
281.1871	0.001006
283.9166	0.000309
286.6484	-0.001463
289.3827	-0.000513
292.1193	-0.001125
294.8582	0.000520
297.5995	-0.001716
300.3432	-0.000028
303.0892	-0.000450
305.8376	-0.000366
308.5883	0.000436
311.3413	0.000077
314.0967	-0.000239
316.8543	0.001090
319.6143	-0.000513
322.3766	-0.000914
325.1412	-0.001969
327.9082	0.002019
330.6774	-0.000619
333.4489	0.000858
336.2227	-0.000155
338.9987	-0.000746
341.7771	-0.000535
344.5577	0.000943
347.3406	0.000183
350.1257	0.000710
352.9131	-0.000577
355.7027	-0.000746
358.4946	-0.000788
361.2888	0.000246
364.0851	0.000668
366.8837	0.000900
369.6845	-0.000957
372.4876	0.000436
375.2928	-0.000535
378.1003	-0.000324
380.9100	-0.000492
383.7219	0.000331
386.5359	-0.000049
389.3522	0.000563
392.1706	0.001660
394.9912	0.004445
397.8140	0.006703
400.6390	0.008117
403.4661	0.010691
406.2954	0.014152
409.1269	0.013603
411.9605	0.014996
414.7962	0.016494
417.6341	0.017106
420.4741	0.017865
423.3162	0.023246
426.1605	0.021052
429.0068	0.020102
431.8553	0.019849
434.7059	0.021178
437.5586	0.020672
440.4135	0.020397
443.2703	0.023330
446.1293	0.023225
448.9904	0.019722
451.8535	0.018287
454.7188	0.016895
457.5860	0.015291
460.4554	0.016620
463.3268	0.010754
466.2003	0.013540
469.0758	0.010860
471.9533	0.007547
474.8329	0.007631
477.7145	0.006175
480.5982	0.006260
483.4838	0.005331
486.3715	0.018055
489.2612	0.004720
492.1529	0.003664
495.0466	0.000837
497.9423	0.000710
500.8400	0.002905
503.7397	0.002673
506.6414	0.003770
509.5450	0.001407
512.4506	0.001343
515.3582	0.001533
518.2677	0.002609
521.1792	0.003411
524.0927	0.000816
527.0081	0.004150
529.9254	0.003517
532.8447	0.004551
535.7659	0.006471
538.6890	0.007294
541.6140	0.009151
544.5410	0.010818
547.4699	0.012907
550.4007	0.013371
553.3333	0.017802
556.2679	0.021241
559.2044	0.020651
562.1427	0.029661
565.0829	0.031095
568.0250	0.045381
570.9690	0.089671
573.9149	0.125838
576.8626	0.145103
579.8121	0.166752
582.7635	0.241132
585.7167	0.198129
588.6718	0.168039
591.6288	0.104948
594.5875	0.142676
597.5481	0.122905
600.5105	0.158523
603.4747	0.154619
606.4407	0.146432
609.4085	0.116385
612.3781	0.112418
615.3495	0.105687
618.3227	0.091233
621.2977	0.065574
624.2745	0.069984
627.2530	0.057957
630.2333	0.053293
633.2154	0.036561
636.1992	0.035632
639.1848	0.035759
642.1721	0.026096
645.1612	0.021337
648.1520	0.024137
651.1445	0.024114
654.1388	0.027836
657.1348	0.903828
660.1325	0.061752
663.1319	0.019205
666.1330	0.018549
669.1359	0.018055
672.1404	0.026052
675.1466	0.022402
678.1545	0.024407
681.1641	0.028268
684.1754	0.027572
687.1883	0.036139
690.2029	0.026327
693.2192	0.033248
696.2371	0.026263
699.2567	0.030462
702.2779	0.024364
705.3008	0.022993
708.3253	0.031792
711.3514	0.027508
714.3791	0.028774
717.4085	0.021938
720.4395	0.023204
723.4721	0.023626
726.5063	0.027740
729.5421	0.031475
732.5795	0.036096
735.6185	0.041772
738.6591	0.033923
741.7013	0.030167
744.7450	0.026960
747.7903	0.027276
750.8372	0.032425
753.8856	0.032319
756.9356	0.041266
759.9872	0.050740
763.0403	0.042342
766.0949	0.043840
769.1510	0.041646
772.2087	0.037341
775.2679	0.024744
778.3287	0.022613
781.3909	0.029133
784.4547	0.029133
787.5199	0.024006
790.5867	0.020841
793.6550	0.018477
796.7247	0.019553
799.7959	0.017274
802.8686	0.016093
805.9428	0.015312
809.0185	0.019490
812.0956	0.014679
815.1742	0.013308
818.2542	0.011999
821.3357	0.013476
824.4186	0.008581
827.5029	0.009931
830.5887	0.009488
833.6759	0.005943
836.7646	0.006028
839.8546	0.007294
842.9461	0.004023
846.0390	0.004065
849.1333	0.004487
852.2289	0.004635
855.3260	0.011324
858.4245	0.009931
861.5243	0.006724
864.6255	0.003749
867.7281	0.004340
870.8321	0.003770
873.9374	0.004171
877.0441	0.006386
880.1521	0.006513
883.2615	0.004361
886.3722	0.006935
889.4843	0.003411
892.5977	0.004403
895.7124	0.004255
898.8284	0.002989
901.9458	0.003074
905.0644	0.003833
908.1844	0.005353
911.3057	0.003179
914.4283	0.003200
917.5521	0.003538
920.6773	0.004129
923.8037	0.002968
926.9314	0.002103
930.0604	0.001871
933.1906	0.000985
936.3221	0.001386
939.4549	0.000225
942.5889	0.000225
945.7241	-0.000450
948.8606	0.001702
951.9983	0.000077
955.1373	0.000373
958.2775	0.000098
961.4189	0.001048
964.5615	0.000964
967.7053	0.000858
970.8504	-0.000345
973.9966	0.000436
977.1440	0.000077
980.2926	0.000394
983.4424	-0.000134
986.5934	0.001027
989.7456	-0.000935
992.8989	-0.000176
996.0534	-0.000492
999.2090	0.000373
1002.37	0.000774
1005.52	-0.000577
1008.68	-0.000049
1011.84	0.000225
1015	-0.000535
1018.17	0.000098
1021.33	0.000162
1023.03	0.000246

File: spectrum_2025-06-20_09-42-28_absorbance.txt
# Wavelength	Absorbance
197.78 2.878522
200.433 3.008600
203.089 3.034628
205.748 2.682145
208.408 2.970812
211.072 0.486439
213.738 2.985426
216.406 0.185165
219.077 0.841120
221.75 3.183555
224.426 0.456880
227.105 -0.570045
229.786 0.300329
232.469 -1.110996
235.155 0.494509
237.843 -0.575253
240.534 -3.154728
243.227 -0.431646
245.923 0.244369
248.621 2.727541
251.321 2.736397
254.024 2.872739
256.73 0.876496
259.438 2.975891
262.148 1.445827
264.86 2.662758
267.575 2.799341
270.293 -2.491362
273.013 2.799341
275.735 0.000000
278.46 -0.157213
281.187 -3.028978
283.917 2.866287
286.648 0.791297
289.383 0.045839
292.119 3.059185
294.858 3.074816
297.599 2.269513
300.343 0.473872
303.089 2.357935
305.838 3.201124
308.588 3.242293
311.341 0.174886
314.097 2.599883
316.854 0.884257
319.614 3.245019
322.377 0.537721
325.141 0.892812
327.908 0.608028
330.677 3.635484
333.449 0.830458
336.223 1.146409
338.999 3.739731
341.777 1.084095
344.558 0.866468
347.341 0.662626
350.126 1.250655
352.913 3.896857
355.703 1.209692
358.495 3.959995
361.289 1.615631
364.085 1.629012
366.884 4.063634
369.685 4.136974
372.488 1.753672
375.293 4.182329
378.1 4.253265
380.91 4.341138
383.722 4.350442
386.536 2.380746
389.352 1.488692
392.171 1.096723
394.991 1.066578
397.814 0.713443
400.639 0.717452
403.466 0.614185
406.295 0.560229
409.127 0.456165
411.961 0.456090
414.796 0.391818
417.634 0.380981
420.474 0.391447
423.316 0.359006
426.161 0.320460
429.007 0.296848
431.855 0.319975
434.706 0.401786
437.559 0.355426
440.413 0.446392
443.27 0.325042
446.129 0.358049
448.99 0.407648
451.853 0.441326
454.719 0.491042
457.586 0.504819
460.455 0.569218
463.327 0.603778
466.2 0.671889
469.076 0.726692
471.953 0.809003
474.833 0.784576
477.714 0.880108
480.598 0.939231
483.484 1.026036
486.372 1.092541
489.261 1.207530
492.153 1.288566
495.047 1.264073
497.942 1.710581
500.84 1.306565
503.74 1.286662
506.641 1.536396
509.545 1.573011
512.451 1.208437
515.358 1.096033
518.268 1.196722
521.179 1.719458
524.093 1.147181
527.008 1.027487
529.925 0.967523
532.845 0.926262
535.766 0.855844
538.689 0.795850
541.614 0.688526
544.541 0.639866
547.47 0.570423
550.401 0.531217
553.333 0.445061
556.268 0.382418
559.204 0.321870
562.143 0.323757
565.083 0.280296
568.025 0.234920
570.969 0.225063
573.915 0.200421
576.863 0.194804
579.812 0.157114
582.764 0.140860
585.717 0.137495
588.672 0.130124
591.629 0.121465
594.587 0.108734
597.548 0.116075
600.51 0.106137
603.475 0.102261
606.441 0.092544
609.409 0.097334
612.378 0.105558
615.35 0.105479
618.323 0.091174
621.298 0.099341
624.274 0.096192
627.253 0.088738
630.233 0.096125
633.215 0.076130
636.199 0.099878
639.185 0.065754
642.172 0.097642
645.161 0.090129
648.152 0.119591
651.144 0.129585
654.139 0.107628
657.135 0.089876
660.133 0.159113
663.132 0.130931
666.133 0.069009
669.136 0.136174
672.14 0.104980
675.147 0.110866
678.154 0.087916
681.164 0.072742
684.175 0.061789
687.188 0.065355
690.203 0.091367
693.219 0.091226
696.237 0.072591
699.257 0.073389
702.278 0.099586
705.301 0.118079
708.325 0.073121
711.351 0.063503
714.379 0.080229
717.409 0.107416
720.439 0.066029
723.472 0.054707
726.506 0.128910
729.542 0.062348
732.58 0.107451
735.619 0.076373
738.659 0.072240
741.701 0.072201
744.745 0.078701
747.79 0.079538
750.837 0.059694
753.886 0.073732
756.936 0.069724
759.987 0.077635
763.04 0.061714
766.095 0.068252
769.151 0.082552
772.209 0.098529
775.268 0.016833
778.329 0.067295
781.391 0.086787
784.455 0.097740
787.52 0.119315
790.587 0.125808
793.655 0.068779
796.725 0.111139
799.796 0.138165
802.869 0.093829
805.943 0.070047
809.019 0.108894
812.096 0.109556
815.174 0.073046
818.254 0.091930
821.336 0.154504
824.419 0.126764
827.503 0.102163
830.589 0.088843
833.676 0.109772
836.765 0.151391
839.855 0.066429
842.946 0.077243
846.039 0.113280
849.133 0.178965
852.229 -0.014006
855.326 0.145186
858.424 0.137191
861.524 0.232662
864.625 0.174317
867.728 0.178263
870.832 0.182096
873.937 0.086900
877.044 0.140375
880.152 0.050158
883.261 0.180936
886.372 0.123976
889.484 0.151846
892.598 0.219972
895.712 0.145828
898.828 0.273095
901.946 0.050829
905.064 0.080709
908.184 -0.155683
911.306 -0.008682
914.428 0.480897
917.552 -0.004625
920.677 0.083619
923.804 0.123613
926.931 0.212045
930.06 -0.055028
933.191 0.245457
936.322 -0.320322
939.455 0.681055
942.589 0.131293
945.724 0.205731
948.861 3.265290
951.998 0.130742
955.137 2.840106
958.278 -0.308410
961.419 -0.006704
964.562 3.252853
967.705 0.605746
970.85 2.710117
973.997 0.001321
977.144 0.475730
980.293 3.008600
983.442 2.610660
986.593 2.820201
989.746 -0.138599
992.899 -0.226433
996.053 -0.325443
999.209 0.000000
1002.37 2.599883
1005.52 0.319043
1008.68 0.200603
1011.84 2.872156
1015 0.000000
1018.17 3.231724
1021.33 -2.864511
1023.03 0.386402

File: spectrum_2025-06-20_09-47-35.txt
# Wavelength (nm)	Intensity (a.u.)
197.7802	0.002090
200.4334	0.000276
203.0892	0.000255
205.7475	0.000888
208.4084	0.001120
211.0718	0.001647
213.7376	-0.000336
216.4060	-0.000294
219.0769	-0.000167
221.7503	-0.000209
224.4262	0.001014
227.1046	0.000445
229.7855	0.000107
232.4688	-0.000589
235.1546	0.000740
237.8429	0.001099
240.5337	0.001141
243.2269	0.000613
245.9225	-0.000315
248.6206	0.000656
251.3212	-0.000040
254.0242	-0.000251
256.7296	0.002301
259.4375	0.000065
262.1477	0.000698
264.8604	0.001436
267.5755	0.000107
270.2931	0.000740
273.0130	0.001879
275.7353	0.000677
278.4600	-0.000062
281.1871	0.000845
283.9166	0.001457
286.6484	0.001478
289.3827	0.001077
292.1193	0.000909
294.8582	-0.000230
297.5995	0.001014
300.3432	0.000213
303.0892	-0.000441
305.8376	0.001816
308.5883	0.000107
311.3413	0.001309
314.0967	0.000170
316.8543	0.001162
319.6143	0.001542
322.3766	0.001183
325.1412	0.000803
327.9082	0.002048
330.6774	-0.000146
333.4489	0.000086
336.2227	0.001499
338.9987	0.000761
341.7771	0.000234
344.5577	-0.000125
347.3406	0.001795
350.1257	0.000613
352.9131	-0.000673
355.7027	0.000487
358.4946	0.000951
361.2888	0.000445
364.0851	-0.000272
366.8837	0.000592
369.6845	0.000297
372.4876	0.001394
375.2928	-0.001348
378.1003	0.000592
380.9100	-0.000019
383.7219	0.001752
386.5359	0.001099
389.3522	0.000761
392.1706	0.001204
394.9912	0.002891
397.8140	0.004115
400.6390	0.006498
403.4661	0.007258
406.2954	0.008101
409.1269	0.010274
411.9605	0.011750
414.7962	0.013944
417.6341	0.014535
420.4741	0.016201
423.3162	0.019365
426.1605	0.016517
429.0068	0.018605
431.8553	0.019512
434.7059	0.020757
437.5586	0.020040
440.4135	0.019048
443.2703	0.022486
446.1293	0.020989
448.9904	0.020799
451.8535	0.016454
454.7188	0.015463
457.5860	0.014239
460.4554	0.014872
463.3268	0.012805
466.2003	0.011877
469.0758	0.009029
471.9533	0.008228
474.8329	0.007173
477.7145	0.003862
480.5982	0.007026
483.4838	0.003503
486.3715	0.013606
489.2612	0.003461
492.1529	0.004030
495.0466	0.002533
497.9423	0.003081
500.8400	0.004094
503.7397	0.003419
506.6414	0.002280
509.5450	0.001774
512.4506	0.002596
515.3582	0.001689
518.2677	0.003883
521.1792	0.002406
524.0927	0.003081
527.0081	0.003756
529.9254	0.004558
532.8447	0.004895
535.7659	0.006920
538.6890	0.008017
541.6140	0.010105
544.5410	0.011624
547.4699	0.013438
550.4007	0.014197
553.3333	0.019344
556.2679	0.023267
559.2044	0.020208
562.1427	0.027380
565.0829	0.033876
568.0250	0.047355
570.9690	0.090953
573.9149	0.126030
576.8626	0.149274
579.8121	0.168932
582.7635	0.213606
585.7167	0.198419
588.6718	0.170873
591.6288	0.110843
594.5875	0.141955
597.5481	0.125249
600.5105	0.147502
603.4747	0.158154
606.4407	0.138664
609.4085	0.111138
612.3781	0.106224
615.3495	0.109388
618.3227	0.091143
621.2977	0.060094
624.2745	0.073256
627.2530	0.061149
630.2333	0.051130
633.2154	0.039571
636.1992	0.038348
639.1848	0.035648
642.1721	0.025521
645.1612	0.022795
648.1520	0.025014
651.1445	0.025646
654.1388	0.027663
657.1348	0.740784
660.1325	0.042113
663.1319	0.019038
666.1330	0.020544
669.1359	0.017361
672.1404	0.026979
675.1466	0.024490
678.1545	0.024553
681.1641	0.027865
684.1754	0.027949
687.1883	0.037336
690.2029	0.029721
693.2192	0.032168
696.2371	0.026431
699.2567	0.030248
702.2779	0.024532
705.3008	0.021221
708.3253	0.033075
711.3514	0.025524
714.3791	0.030481
717.4085	0.023668
720.4395	0.025756
723.4721	0.025250
726.5063	0.030080
729.5421	0.031767
732.5795	0.035353
735.6185	0.041428
738.6591	0.034509
741.7013	0.030923
744.7450	0.025671
747.7903	0.027633
750.8372	0.031852
753.8856	0.035416
756.9356	0.044191
759.9872	0.050603
763.0403	0.043073
766.0949	0.044064
769.1510	0.041111
772.2087	0.034804
775.2679	0.024532
778.3287	0.021875
781.3909	0.032273
784.4547	0.026536
787.5199	0.025882
790.5867	0.022676
793.6550	0.020230
796.7247	0.017994
799.7959	0.018669
802.8686	0.015948
805.9428	0.018268
809.0185	0.020398
812.0956	0.013311
815.1742	0.013332
818.2542	0.012889
821.3357	0.012531
824.4186	0.009789
827.5029	0.013817
830.5887	0.008523
833.6759	0.008059
836.7646	0.007047
839.8546	0.006266
842.9461	0.003651
846.0390	0.003419
849.1333	0.004157
852.2289	0.005908
855.3260	0.012678
858.4245	0.007933
861.5243	0.004389
864.6255	0.005844
867.7281	0.004600
870.8321	0.004811
873.9374	0.004389
877.0441	0.004199
880.1521	0.005929
883.2615	0.006245
886.3722	0.006730
889.4843	0.005275
892.5977	0.004094
895.7124	0.006034
898.8284	0.004073
901.9458	0.005697
905.0644	0.003250
908.1844	0.004009
911.3057	0.003524
914.4283	0.001710
917.5521	0.003735
920.6773	0.002322
923.8037	0.001858
926.9314	0.002554
930.0604	0.001837
933.1906	0.002216
936.3221	0.001183
939.4549	0.001689
942.5889	0.002195
945.7241	0.002807
948.8606	0.000107
951.9983	0.002216
955.1373	0.002027
958.2775	0.001183
961.4189	0.000550
964.5615	0.000318
967.7053	0.000740
970.8504	0.002301
973.9966	0.001752
977.1440	0.000677
980.2926	0.000128
983.4424	0.000592
986.5934	0.001373
989.7456	0.000909
992.8989	0.000845
996.0534	0.002006
999.2090	-0.000019
1002.37	-0.000821
1005.52	0.000255
1008.68	-0.000019
1011.84	0.000656
1015	0.001710
1018.17	0.000888
1021.33	0.001141
1023.03	-0.000589