Folder: Auto_Polymerization/Auto_Polymerization/Data/UV_VIS_Spectra/MRG-061-F-4_spectra_while_stopped_with_alu_foil

Note: README.md
# Auto_Polymerization

[![Python 3.10](https://img.shields.io/badge/python-3.10-blue.svg)](https://www.python.org/downloads/)
[![License: MIT](https://img.shields.io/badge/License-MIT-yellow.svg)](https://opensource.org/licenses/MIT)

This repository contains the **Auto_Polymerization platform** for automated polymer synthesis and characterization.

## ğŸš€ Quick Start

### Device Testing

For testing real devices in your Auto_Polymerization platform, see the demo folder:

```bash
cd Auto_Polymerization/demo
python demo_device_test.py
```

This will guide you through testing individual devices with safe parameters.

For comprehensive device testing:

```bash
cd Auto_Polymerization/demo
python device_test_controller.py
```

ğŸ“– See [`Auto_Polymerization/demo/DEVICE_TESTING_README.md`](Auto_Polymerization/demo/DEVICE_TESTING_README.md) for detailed documentation.

## ğŸ“¦ Required Packages and Setup

### ğŸ”§ Hardware Drivers

Install drivers for the devices used in this project:

- **[Thorlabs CCS200 Spectrometer](https://www.thorlabs.com/thorproduct.cfm?partnumber=CCS200#ad-image-0)** - UV-VIS spectroscopy
- **[Thorlabs upLED Controller](https://www.thorlabs.com/thorproduct.cfm?partnumber=UPLED)** - LED control

### ğŸ Python Environment

**Python Version:** 3.10

Install the linear actuator and valves control package from the local source in editable mode:

```bash
pip install -e src/linear_actuator_and_valves/
```

### ğŸ“š Core Dependencies

```bash
pip install scipy numpy pandas matplotlib pyserial nmrglue requests pyyaml medusa-sdl
```

### ğŸ”¬ MatterLab Packages

Install from [MatterLab devices repository](https://gitlab.com/aspuru-guzik-group/self-driving-lab/devices):

#### Easy Installation (if available):
```bash
pip install matterlab_hotplates
pip install matterlab_pumps
pip install matterlab_serial_device
```

#### Manual Installation:

**Hotplates, Pumps, Serial Device:**

https://gitlab.com/aspuru-guzik-group/self-driving-lab/devices



**Spectrometers:**

- **NMR (Nanalysis Benchtop):**

  git clone https://gitlab.com/aspuru-guzik-group/self-driving-lab/devices/nmr
  cd nmr
  git checkout develop
  pip install -e .


- **UV-VIS (Thorlabs CCS200):**

  git clone https://gitlab.com/aspuru-guzik-group/self-driving-lab/devices/spectrometer
  cd spectrometer
  git checkout develop
  pip install -e .


> **Note:** If access is not public, contact Han Hao at University of Toronto.

### âš™ï¸ Configuration

**CSS200 Spectrometer DLL:**
Potentially you need to update the `DLL_FILE` value in `ccs_spectrometer.py` in the matterlab package:
The correct file path is typically: 
DLL_FILE = Path(r"C:\Program Files\IVI Foundation\VISA\Win64\Bin\TLCCS_64.dll")
#

**Arduino Setup:**
1. Install Arduino IDE on your PC
2. Upload the Arduino code from `users/setup/` to your Arduino board
3. An overview of the hardware connections of the GPIO pins is given in "Arduino_contacts_overview_2025_06_27_bb.jpg"
## âš ï¸ Important Notes



## ğŸ“ Project Struc

File: spectrum_2025-06-20_08-41-04.txt
# Wavelength (nm)	Intensity (a.u.)
197.7802	0.001322
200.4334	-0.000471
203.0892	-0.000703
205.7475	-0.000344
208.4084	0.000541
211.0718	-0.002053
213.7376	0.001343
216.4060	0.001891
219.0769	0.001533
221.7503	-0.000450
224.4262	0.000098
227.1046	-0.000007
229.7855	0.000246
232.4688	0.000077
235.1546	0.000562
237.8429	0.000373
240.5337	0.001153
243.2269	0.000120
245.9225	-0.000808
248.6206	0.000415
251.3212	0.000921
254.0242	0.000246
256.7296	-0.000513
259.4375	-0.000049
262.1477	0.000330
264.8604	0.000394
267.5755	0.000541
270.2931	0.000352
273.0130	0.000288
275.7353	-0.000197
278.4600	0.001132
281.1871	-0.000028
283.9166	-0.000766
286.6484	0.000288
289.3827	0.000056
292.1193	-0.000091
294.8582	0.000816
297.5995	0.000457
300.3432	0.001279
303.0892	-0.000534
305.8376	-0.000260
308.5883	0.000162
311.3413	-0.000598
314.0967	0.002271
316.8543	0.000837
319.6143	0.000120
322.3766	-0.001715
325.1412	0.000014
327.9082	0.000394
330.6774	0.000098
333.4489	0.001047
336.2227	0.001026
338.9987	0.000879
341.7771	-0.000387
344.5577	-0.000323
347.3406	0.001005
350.1257	0.000415
352.9131	-0.000429
355.7027	0.001237
358.4946	0.000457
361.2888	0.001490
364.0851	0.000752
366.8837	0.000984
369.6845	0.001216
372.4876	-0.000049
375.2928	0.001765
378.1003	0.000984
380.9100	0.001069
383.7219	0.000984
386.5359	0.001090
389.3522	0.001343
392.1706	0.003325
394.9912	0.007248
397.8140	0.010201
400.6390	0.013006
403.4661	0.016296
406.2954	0.018321
409.1269	0.020767
411.9605	0.019523
414.7962	0.021674
417.6341	0.023340
420.4741	0.025850
423.3162	0.025597
426.1605	0.021758
429.0068	0.024542
431.8553	0.024458
434.7059	0.024521
437.5586	0.022433
440.4135	0.023657
443.2703	0.026377
446.1293	0.024015
448.9904	0.022075
451.8535	0.018194
454.7188	0.016275
457.5860	0.017751
460.4554	0.015663
463.3268	0.012078
466.2003	0.014482
469.0758	0.008746
471.9533	0.007607
474.8329	0.006847
477.7145	0.006552
480.5982	0.006341
483.4838	0.005603
486.3715	0.013744
489.2612	0.003621
492.1529	0.003916
495.0466	0.000605
497.9423	0.003621
500.8400	0.002819
503.7397	0.004570
506.6414	0.001427
509.5450	0.002482
512.4506	0.002313
515.3582	0.003642
518.2677	0.003178
521.1792	0.002144
524.0927	0.002988
527.0081	0.002292
529.9254	0.005076
532.8447	0.005624
535.7659	0.009041
538.6890	0.008914
541.6140	0.009716
544.5410	0.012310
547.4699	0.013259
550.4007	0.015537
553.3333	0.018742
556.2679	0.023298
559.2044	0.020957
562.1427	0.027706
565.0829	0.031144
568.0250	0.046898
570.9690	0.094879
573.9149	0.128645
576.8626	0.150136
579.8121	0.173441
582.7635	0.214948
585.7167	0.192423
588.6718	0.164689
591.6288	0.111477
594.5875	0.141869
597.5481	0.122909
600.5105	0.148892
603.4747	0.158066
606.4407	0.133665
609.4085	0.110760
612.3781	0.106205
615.3495	0.104644
618.3227	0.087772
621.2977	0.062505
624.2745	0.072333
627.2530	0.057865
630.2333	0.047658
633.2154	0.037829
636.1992	0.035067
639.1848	0.034392
642.1721	0.024829
645.1612	0.023456
648.1520	0.022392
651.1445	0.023783
654.1388	0.027716
657.1348	0.716725
660.1325	0.037582
663.1319	0.018817
666.1330	0.019736
669.1359	0.016591
672.1404	0.026904
675.1466	0.022644
678.1545	0.023214
681.1641	0.026145
684.1754	0.026778
687.1883	0.035826
690.2029	0.027242
693.2192	0.033738
696.2371	0.026019
699.2567	0.030321
702.2779	0.023657
705.3008	0.019607
708.3253	0.031186
711.3514	0.027432
714.3791	0.029246
717.4085	0.023657
720.4395	0.024184
723.4721	0.023235
726.5063	0.028676
729.5421	0.028971
732.5795	0.034349
735.6185	0.040993
738.6591	0.032451
741.7013	0.028001
744.7450	0.024774
747.7903	0.026145
750.8372	0.032683
753.8856	0.036754
756.9356	0.041541
759.9872	0.049450
763.0403	0.039664
766.0949	0.040655
769.1510	0.039348
772.2087	0.033907
775.2679	0.025512
778.3287	0.019607
781.3909	0.028339
784.4547	0.025175
787.5199	0.022982
790.5867	0.021210
793.6550	0.019101
796.7247	0.020156
799.7959	0.017034
802.8686	0.013196
805.9428	0.016465
809.0185	0.017646
812.0956	0.014967
815.1742	0.014503
818.2542	0.011635
821.3357	0.012099
824.4186	0.007649
827.5029	0.010412
830.5887	0.008640
833.6759	0.008872
836.7646	0.006341
839.8546	0.006594
842.9461	0.004506
846.0390	0.004317
849.1333	0.004633
852.2289	0.004759
855.3260	0.011593
858.4245	0.006890
861.5243	0.004527
864.6255	0.004781
867.7281	0.003599
870.8321	0.004570
873.9374	0.003810
877.0441	0.004506
880.1521	0.005181
883.2615	0.005687
886.3722	0.006362
889.4843	0.005940
892.5977	0.004274
895.7124	0.004928
898.8284	0.005202
901.9458	0.005561
905.0644	0.003768
908.1844	0.002439
911.3057	0.004506
914.4283	0.002229
917.5521	0.003557
920.6773	0.003389
923.8037	0.001765
926.9314	0.002439
930.0604	0.001912
933.1906	0.002735
936.3221	0.001596
939.4549	0.001174
942.5889	0.000647
945.7241	0.001132
948.8606	0.001554
951.9983	0.001638
955.1373	0.001322
958.2775	0.000373
961.4189	-0.000028
964.5615	0.001343
967.7053	0.000731
970.8504	0.001469
973.9966	0.001111
977.1440	-0.000387
980.2926	0.001511
983.4424	-0.000323
986.5934	-0.000281
989.7456	-0.000281
992.8989	0.000647
996.0534	0.001216
999.2090	-0.000134
1002.37	0.001659
1005.52	0.001132
1008.68	0.000541
1011.84	0.000647
1015	0.000794
1018.17	0.000014
1021.33	0.000731
1023.03	-0.000956

File: spectrum_2025-06-20_08-46-12.txt
# Wavelength (nm)	Intensity (a.u.)
197.7802	0.001749
200.4334	0.001686
203.0892	-0.000508
205.7475	0.000652
208.4084	0.001032
211.0718	-0.000255
213.7376	0.002276
216.4060	0.000610
219.0769	0.000083
221.7503	0.000209
224.4262	0.001896
227.1046	0.000589
229.7855	0.001833
232.4688	-0.000698
235.1546	0.000526
237.8429	0.000146
240.5337	0.000863
243.2269	0.000315
245.9225	0.000399
248.6206	-0.000065
251.3212	0.000884
254.0242	0.000842
256.7296	0.001601
259.4375	0.000019
262.1477	0.000504
264.8604	0.001496
267.5755	0.000146
270.2931	0.000336
273.0130	0.001749
275.7353	0.000209
278.4600	0.000146
281.1871	-0.000255
283.9166	0.000758
286.6484	0.000167
289.3827	0.000905
292.1193	-0.000170
294.8582	0.001032
297.5995	0.000188
300.3432	0.000800
303.0892	0.000315
305.8376	0.000589
308.5883	-0.000149
311.3413	0.000947
314.0967	0.000357
316.8543	0.001264
319.6143	-0.000023
322.3766	0.000673
325.1412	0.000315
327.9082	0.000905
330.6774	0.001875
333.4489	0.000104
336.2227	-0.000318
338.9987	0.000715
341.7771	-0.000149
344.5577	0.001053
347.3406	0.000315
350.1257	-0.000592
352.9131	0.000526
355.7027	0.000884
358.4946	0.000779
361.2888	0.000462
364.0851	0.000336
366.8837	0.000568
369.6845	0.000800
372.4876	0.000315
375.2928	0.001496
378.1003	0.001643
380.9100	0.000230
383.7219	-0.000023
386.5359	0.000673
389.3522	0.003521
392.1706	0.003900
394.9912	0.007781
397.8140	0.010059
400.6390	0.012569
403.4661	0.015395
406.2954	0.017631
409.1269	0.018770
411.9605	0.019677
414.7962	0.020816
417.6341	0.022208
420.4741	0.023178
423.3162	0.024528
426.1605	0.022334
429.0068	0.025287
431.8553	0.025372
434.7059	0.023220
437.5586	0.021723
440.4135	0.022187
443.2703	0.024275
446.1293	0.022756
448.9904	0.021681
451.8535	0.019255
454.7188	0.016576
457.5860	0.017610
460.4554	0.016576
463.3268	0.014404
466.2003	0.013391
469.0758	0.010207
471.9533	0.008013
474.8329	0.008414
477.7145	0.006811
480.5982	0.009068
483.4838	0.004955
486.3715	0.015332
489.2612	0.003394
492.1529	0.002888
495.0466	0.002297
497.9423	0.004006
500.8400	0.002424
503.7397	0.003668
506.6414	0.003436
509.5450	0.003035
512.4506	0.002761
515.3582	0.003499
518.2677	0.002466
521.1792	0.002213
524.0927	0.003099
527.0081	0.003035
529.9254	0.003985
532.8447	0.005039
535.7659	0.005988
538.6890	0.008498
541.6140	0.009131
544.5410	0.010586
547.4699	0.015037
550.4007	0.016028
553.3333	0.019255
556.2679	0.022482
559.2044	0.021723
562.1427	0.027502
565.0829	0.035285
568.0250	0.044881
570.9690	0.090672
573.9149	0.126865
576.8626	0.144624
579.8121	0.166264
582.7635	0.210705
585.7167	0.194570
588.6718	0.166623
591.6288	0.107250
594.5875	0.141334
597.5481	0.122942
600.5105	0.149011
603.4747	0.154622
606.4407	0.132855
609.4085	0.105056
612.3781	0.102926
615.3495	0.102631
618.3227	0.089427
621.2977	0.058633
624.2745	0.070297
627.2530	0.057305
630.2333	0.049501
633.2154	0.037014
636.1992	0.034504
639.1848	0.034863
642.1721	0.025367
645.1612	0.022947
648.1520	0.022925
651.1445	0.022279
654.1388	0.027275
657.1348	0.699245
660.1325	0.036422
663.1319	0.017372
666.1330	0.019238
669.1359	0.016640
672.1404	0.026743
675.1466	0.021470
678.1545	0.021744
681.1641	0.027481
684.1754	0.029042
687.1883	0.034926
690.2029	0.027692
693.2192	0.031404
696.2371	0.023748
699.2567	0.029695
702.2779	0.025772
705.3008	0.021702
708.3253	0.029780
711.3514	0.025013
714.3791	0.028303
717.4085	0.023094
720.4395	0.022609
723.4721	0.023853
726.5063	0.026679
729.5421	0.029252
732.5795	0.032079
735.6185	0.039482
738.6591	0.032522
741.7013	0.025815
744.7450	0.025772
747.7903	0.023958
750.8372	0.033808
753.8856	0.034863
756.9356	0.041950
759.9872	0.047982
763.0403	0.040747
766.0949	0.040452
769.1510	0.040431
772.2087	0.035116
775.2679	0.025182
778.3287	0.019297
781.3909	0.028704
784.4547	0.024760
787.5199	0.023684
790.5867	0.019909
793.6550	0.019761
796.7247	0.016787
799.7959	0.018306
802.8686	0.013413
805.9428	0.015880
809.0185	0.018369
812.0956	0.012316
815.1742	0.011303
818.2542	0.010966
821.3357	0.012843
824.4186	0.008941
827.5029	0.012801
830.5887	0.007401
833.6759	0.007655
836.7646	0.005208
839.8546	0.006874
842.9461	0.005250
846.0390	0.004406
849.1333	0.005166
852.2289	0.005777
855.3260	0.011114
858.4245	0.008076
861.5243	0.004491
864.6255	0.006284
867.7281	0.005313
870.8321	0.005883
873.9374	0.004828
877.0441	0.005060
880.1521	0.006937
883.2615	0.004702
886.3722	0.006284
889.4843	0.003099
892.5977	0.004681
895.7124	0.002740
898.8284	0.003753
901.9458	0.003141
905.0644	0.005461
908.1844	0.004849
911.3057	0.003795
914.4283	0.002403
917.5521	0.004428
920.6773	0.002993
923.8037	0.003816
926.9314	0.001686
930.0604	0.002361
933.1906	0.000736
936.3221	0.002129
939.4549	0.001664
942.5889	0.000441
945.7241	0.002234
948.8606	0.000378
951.9983	0.001074
955.1373	0.001200
958.2775	-0.000086
961.4189	0.000336
964.5615	0.001601
967.7053	0.001454
970.8504	0.000483
973.9966	-0.001014
977.1440	0.001686
980.2926	0.000589
983.4424	0.000990
986.5934	-0.000613
989.7456	0.000736
992.8989	-0.000824
996.0534	-0.000107
999.2090	-0.000002
1002.37	-0.000656
1005.52	0.000441
1008.68	0.000441
1011.84	0.000568
1015	0.000188
1018.17	-0.000255
1021.33	-0.001225
1023.03	-0.001183