Folder: Auto_Polymerization/Auto_Polymerization/Data/UV_VIS_Spectra/MRG-061-G- spectra_G1_G2_after_aminolysis (part 2)

File: MRG-061-G-2_after_aminolysis_spectrum_2025-06-20_14-49-28_absorbance.txt
# Wavelength	Absorbance
197.78 -0.233077
200.433 3.008600
203.089 3.034628
205.748 -0.470143
208.408 0.632355
211.072 3.104487
213.738 0.179247
216.406 0.607537
219.077 -0.026694
221.75 -0.158868
224.426 -0.086849
227.105 2.294466
229.786 -0.104284
232.469 -1.066674
235.155 0.228952
237.843 -1.223558
240.534 0.000000
243.227 0.415651
245.923 -0.056302
248.621 0.278835
251.321 -0.580203
254.024 2.872739
256.73 -0.056711
259.438 -0.149590
262.148 -0.233601
264.86 0.153555
267.575 0.107375
270.293 -2.806180
273.013 0.008352
275.735 -0.845098
278.46 0.063351
281.187 -2.999131
283.917 -0.123607
286.648 -0.020430
289.383 -0.077472
292.119 3.059185
294.858 0.075686
297.599 -0.649042
300.343 3.270446
303.089 -0.252725
305.838 0.211229
308.588 3.242293
311.341 -0.033359
314.097 -0.110234
316.854 -0.195594
319.614 0.999506
322.377 0.166422
325.141 0.341599
327.908 3.508395
330.677 0.636353
333.449 0.454384
336.223 0.758826
338.999 0.600481
341.777 3.818094
344.558 1.014673
347.341 0.928352
350.126 0.681658
352.913 0.897726
355.703 1.511441
358.495 3.959995
361.289 4.042142
364.085 4.019947
366.884 1.452973
369.685 1.218420
372.488 0.985114
375.293 2.337231
378.1 1.447085
380.91 1.468981
383.722 4.350442
386.536 1.923266
389.352 1.920376
392.171 1.124051
394.991 1.989005
397.814 1.425812
400.639 1.828192
403.466 1.455439
406.295 1.735268
409.127 1.794155
411.961 1.368837
414.796 1.163740
417.634 1.029062
420.474 0.972785
423.316 0.883914
426.161 0.887301
429.007 0.748376
431.855 0.612448
434.706 0.578089
437.559 0.532238
440.413 0.528750
443.27 0.404523
446.129 0.406977
448.99 0.398863
451.853 0.323618
454.719 0.328784
457.586 0.298112
460.455 0.296419
463.327 0.276375
466.2 0.227936
469.076 0.216678
471.953 0.207099
474.833 0.244555
477.714 0.187505
480.598 0.237458
483.484 0.226115
486.372 0.208756
489.261 0.204128
492.153 0.175456
495.047 0.211586
497.942 0.255973
500.84 0.223669
503.74 0.184817
506.641 0.214296
509.545 0.207583
512.451 0.176691
515.358 0.202607
518.268 0.241600
521.179 0.209496
524.093 0.201179
527.008 0.181501
529.925 0.224309
532.845 0.180581
535.766 0.212508
538.689 0.215463
541.614 0.200531
544.541 0.204782
547.47 0.175451
550.401 0.182289
553.333 0.189683
556.268 0.162933
559.204 0.191399
562.143 0.187755
565.083 0.201276
568.025 0.175490
570.969 0.177040
573.915 0.189865
576.863 0.182359
579.812 0.182443
582.764 0.172526
585.717 0.169227
588.672 0.169753
591.629 0.169984
594.587 0.159525
597.548 0.186859
600.51 0.175876
603.475 0.171261
606.441 0.160100
609.409 0.176101
612.378 0.164261
615.35 0.161909
618.323 0.161250
621.298 0.164204
624.274 0.159679
627.253 0.173662
630.233 0.150570
633.215 0.171925
636.199 0.149084
639.185 0.143375
642.172 0.137628
645.161 0.134180
648.152 0.155570
651.144 0.161990
654.139 0.148327
657.135 0.162979
660.133 0.236606
663.132 0.111307
666.133 0.117772
669.136 0.180745
672.14 0.127477
675.147 0.150664
678.154 0.117946
681.164 0.152746
684.175 0.156138
687.188 0.151093
690.203 0.131142
693.219 0.125621
696.237 0.139936
699.257 0.153430
702.278 0.168061
705.301 0.111837
708.325 0.136197
711.351 0.106074
714.379 0.130953
717.409 0.149100
720.439 0.120412
723.472 0.094089
726.506 0.147557
729.542 0.127370
732.58 0.128363
735.619 0.106908
738.659 0.169172
741.701 0.117462
744.745 0.118381
747.79 0.137951
750.837 0.127309
753.886 0.123140
756.936 0.129838
759.987 0.140870
763.04 0.123608
766.095 0.145394
769.151 0.135118
772.209 0.131873
775.268 0.129273
778.329 0.155618
781.391 0.134855
784.455 0.171846
787.52 0.108934
790.587 0.127771
793.655 0.146300
796.725 0.173748
799.796 0.115483
802.869 0.092344
805.943 0.124872
809.019 0.116735
812.096 0.091596
815.174 0.084222
818.254 0.156792
821.336 0.173387
824.419 0.083466
827.503 0.167021
830.589 0.084267
833.676 0.153046
836.765 0.143545
839.855 0.187171
842.946 0.067939
846.039 0.123800
849.133 0.160635
852.229 -0.028136
855.326 0.192663
858.424 0.086491
861.524 0.385859
864.625 0.173494
867.728 -0.176883
870.832 0.130005
873.937 0.220891
877.044 0.045867
880.152 0.112343
883.261 -0.060573
886.372 0.051965
889.484 -0.103199
892.598 0.180577
895.712 0.164753
898.828 0.076403
901.946 0.051975
905.064 0.151072
908.184 0.003926
911.306 0.221001
914.428 -0.062881
917.552 0.174050
920.677 0.039800
923.804 0.283159
926.931 0.188156
930.06 0.406841
933.191 0.164837
936.322 -0.036921
939.455 0.182414
942.589 0.113604
945.724 0.333653
948.861 0.489315
951.998 0.067771
955.137 0.229446
958.278 -0.476474
961.419 -0.381015
964.562 0.743651
967.705 0.222869
970.85 0.415651
973.997 -0.109730
977.144 0.027620
980.293 3.008600
983.442 -0.195520
986.593 -0.119817
989.746 0.278754
992.899 2.866287
996.053 -0.595511
999.209 0.000000
1002.37 2.599883
1005.52 3.183555
1008.68 0.081305
1011.84 -0.553378
1015 -3.118595
1018.17 0.599267
1021.33 0.000000
1023.03 0.021925