Folder: Auto_Polymerization/Auto_Polymerization/Data/UV_VIS_Spectra/MRG-061-F5_spectra_while_stopped_with_alu_foil

Note: README.md
# Auto_Polymerization

[![Python 3.10](https://img.shields.io/badge/python-3.10-blue.svg)](https://www.python.org/downloads/)
[![License: MIT](https://img.shields.io/badge/License-MIT-yellow.svg)](https://opensource.org/licenses/MIT)

This repository contains the **Auto_Polymerization platform** for automated polymer synthesis and characterization.

## ğŸš€ Quick Start

### Device Testing

For testing real devices in your Auto_Polymerization platform, see the demo folder:

```bash
cd Auto_Polymerization/demo
python demo_device_test.py
```

This will guide you through testing individual devices with safe parameters.

For comprehensive device testing:

```bash
cd Auto_Polymerization/demo
python device_test_controller.py
```

ğŸ“– See [`Auto_Polymerization/demo/DEVICE_TESTING_README.md`](Auto_Polymerization/demo/DEVICE_TESTING_README.md) for detailed documentation.

## ğŸ“¦ Required Packages and Setup

### ğŸ”§ Hardware Drivers

Install drivers for the devices used in this project:

- **[Thorlabs CCS200 Spectrometer](https://www.thorlabs.com/thorproduct.cfm?partnumber=CCS200#ad-image-0)** - UV-VIS spectroscopy
- **[Thorlabs upLED Controller](https://www.thorlabs.com/thorproduct.cfm?partnumber=UPLED)** - LED control

### ğŸ Python Environment

**Python Version:** 3.10

Install the linear actuator and valves control package from the local source in editable mode:

```bash
pip install -e src/linear_actuator_and_valves/
```

### ğŸ“š Core Dependencies

```bash
pip install scipy numpy pandas matplotlib pyserial nmrglue requests pyyaml medusa-sdl
```

### ğŸ”¬ MatterLab Packages

Install from [MatterLab devices repository](https://gitlab.com/aspuru-guzik-group/self-driving-lab/devices):

#### Easy Installation (if available):
```bash
pip install matterlab_hotplates
pip install matterlab_pumps
pip install matterlab_serial_device
```

#### Manual Installation:

**Hotplates, Pumps, Serial Device:**

https://gitlab.com/aspuru-guzik-group/self-driving-lab/devices



**Spectrometers:**

- **NMR (Nanalysis Benchtop):**

  git clone https://gitlab.com/aspuru-guzik-group/self-driving-lab/devices/nmr
  cd nmr
  git checkout develop
  pip install -e .


- **UV-VIS (Thorlabs CCS200):**

  git clone https://gitlab.com/aspuru-guzik-group/self-driving-lab/devices/spectrometer
  cd spectrometer
  git checkout develop
  pip install -e .


> **Note:** If access is not public, contact Han Hao at University of Toronto.

### âš™ï¸ Configuration

**CSS200 Spectrometer DLL:**
Potentially you need to update the `DLL_FILE` value in `ccs_spectrometer.py` in the matterlab package:
The correct file path is typically: 
DLL_FILE = Path(r"C:\Program Files\IVI Foundation\VISA\Win64\Bin\TLCCS_64.dll")
#

**Arduino Setup:**
1. Install Arduino IDE on your PC
2. Upload the Arduino code from `users/setup/` to your Arduino board
3. An overview of the hardware connections of the GPIO pins is given in "Arduino_contacts_overview_2025_06_27_bb.jpg"
## âš ï¸ Important Notes



## ğŸ“ Project Struc

File: spectrum_2025-06-20_09-06-40.txt
# Wavelength (nm)	Intensity (a.u.)
197.7802	0.000809
200.4334	0.000070
203.0892	0.000661
205.7475	-0.000204
208.4084	-0.000309
211.0718	0.000534
213.7376	-0.000098
216.4060	0.000745
219.0769	0.001231
221.7503	-0.001006
224.4262	-0.000309
227.1046	-0.000457
229.7855	0.000218
232.4688	0.000387
235.1546	0.001125
237.8429	-0.001111
240.5337	0.001378
243.2269	-0.000204
245.9225	-0.000120
248.6206	-0.001997
251.3212	-0.000120
254.0242	0.000176
256.7296	0.000513
259.4375	-0.000204
262.1477	-0.000225
264.8604	0.001210
267.5755	0.000513
270.2931	0.000513
273.0130	0.001716
275.7353	0.000956
278.4600	-0.000098
281.1871	0.000387
283.9166	0.000534
286.6484	0.000197
289.3827	-0.001385
292.1193	-0.001364
294.8582	-0.000647
297.5995	-0.000436
300.3432	-0.000204
303.0892	-0.000288
305.8376	-0.000204
308.5883	0.000682
311.3413	0.000176
314.0967	0.000007
316.8543	0.000977
319.6143	0.000387
322.3766	0.000598
325.1412	-0.000309
327.9082	0.000893
330.6774	0.000239
333.4489	0.000239
336.2227	0.000471
338.9987	0.000155
341.7771	-0.000900
344.5577	-0.000183
347.3406	0.000197
350.1257	0.000977
352.9131	0.000703
355.7027	0.000408
358.4946	0.001336
361.2888	-0.001660
364.0851	-0.000373
366.8837	0.000745
369.6845	0.000492
372.4876	0.001315
375.2928	0.000661
378.1003	0.001146
380.9100	0.000323
383.7219	0.000239
386.5359	-0.000120
389.3522	0.001420
392.1706	0.004543
394.9912	0.007665
397.8140	0.011504
400.6390	0.013762
403.4661	0.017306
406.2954	0.020196
409.1269	0.020090
411.9605	0.020322
414.7962	0.023170
417.6341	0.024521
420.4741	0.026883
423.3162	0.027580
426.1605	0.023782
429.0068	0.023698
431.8553	0.024668
434.7059	0.023128
437.5586	0.023445
440.4135	0.023360
443.2703	0.027558
446.1293	0.026440
448.9904	0.022474
451.8535	0.021419
454.7188	0.017137
457.5860	0.017517
460.4554	0.016842
463.3268	0.015217
466.2003	0.013023
469.0758	0.009184
471.9533	0.008066
474.8329	0.007391
477.7145	0.006251
480.5982	0.006378
483.4838	0.005387
486.3715	0.014711
489.2612	0.003741
492.1529	0.004585
495.0466	0.004564
497.9423	0.003403
500.8400	0.002159
503.7397	0.003868
506.6414	0.002686
509.5450	0.003551
512.4506	0.002391
515.3582	0.001800
518.2677	0.003593
521.1792	0.001737
524.0927	0.003509
527.0081	0.003910
529.9254	0.004543
532.8447	0.004880
535.7659	0.007032
538.6890	0.009142
541.6140	0.011610
544.5410	0.012264
547.4699	0.014373
550.4007	0.015829
553.3333	0.020829
556.2679	0.024183
559.2044	0.023782
562.1427	0.031820
565.0829	0.034372
568.0250	0.048739
570.9690	0.097028
573.9149	0.132701
576.8626	0.156750
579.8121	0.174049
582.7635	0.221979
585.7167	0.197381
588.6718	0.165716
591.6288	0.110445
594.5875	0.143882
597.5481	0.130401
600.5105	0.153776
603.4747	0.160273
606.4407	0.140127
609.4085	0.111162
612.3781	0.108799
615.3495	0.107913
618.3227	0.090340
621.2977	0.062599
624.2745	0.073252
627.2530	0.060468
630.2333	0.050110
633.2154	0.035638
636.1992	0.034879
639.1848	0.035343
642.1721	0.027062
645.1612	0.024642
648.1520	0.024563
651.1445	0.022782
654.1388	0.028867
657.1348	0.735932
660.1325	0.038497
663.1319	0.017952
666.1330	0.020636
669.1359	0.017643
672.1404	0.026841
675.1466	0.022875
678.1545	0.025554
681.1641	0.029816
684.1754	0.028677
687.1883	0.038781
690.2029	0.028023
693.2192	0.033107
696.2371	0.024943
699.2567	0.028402
702.2779	0.024774
705.3008	0.019711
708.3253	0.031778
711.3514	0.025554
714.3791	0.029605
717.4085	0.021609
720.4395	0.023888
723.4721	0.023529
726.5063	0.026736
729.5421	0.030596
732.5795	0.034415
735.6185	0.038887
738.6591	0.034077
741.7013	0.030259
744.7450	0.025639
747.7903	0.026419
750.8372	0.035554
753.8856	0.036756
756.9356	0.042220
759.9872	0.050237
763.0403	0.040743
766.0949	0.042072
769.1510	0.042537
772.2087	0.035406
775.2679	0.025027
778.3287	0.023086
781.3909	0.030470
784.4547	0.027706
787.5199	0.024605
790.5867	0.020892
793.6550	0.020280
796.7247	0.018213
799.7959	0.017707
802.8686	0.015259
805.9428	0.015681
809.0185	0.020639
812.0956	0.014247
815.1742	0.014542
818.2542	0.011589
821.3357	0.013825
824.4186	0.008825
827.5029	0.012496
830.5887	0.008087
833.6759	0.007623
836.7646	0.007728
839.8546	0.006568
842.9461	0.004796
846.0390	0.004901
849.1333	0.004922
852.2289	0.005176
855.3260	0.012095
858.4245	0.009564
861.5243	0.004163
864.6255	0.004627
867.7281	0.004205
870.8321	0.005007
873.9374	0.003762
877.0441	0.004100
880.1521	0.006905
883.2615	0.005450
886.3722	0.005387
889.4843	0.004500
892.5977	0.005260
895.7124	0.003910
898.8284	0.001589
901.9458	0.001990
905.0644	0.004184
908.1844	0.004057
911.3057	0.003741
914.4283	0.003235
917.5521	0.003256
920.6773	0.002728
923.8037	0.002897
926.9314	0.000640
930.0604	0.003024
933.1906	0.001695
936.3221	0.001948
939.4549	0.001210
942.5889	0.001758
945.7241	0.001188
948.8606	0.000091
951.9983	0.001231
955.1373	0.000534
958.2775	0.000239
961.4189	0.000872
964.5615	0.002222
967.7053	0.000809
970.8504	0.000766
973.9966	0.000534
977.1440	-0.000267
980.2926	-0.000120
983.4424	-0.000457
986.5934	0.000134
989.7456	0.001568
992.8989	0.000788
996.0534	-0.000035
999.2090	-0.000162
1002.37	0.000281
1005.52	0.000471
1008.68	-0.000963
1011.84	0.000197
1015	-0.000014
1018.17	0.000281
1021.33	-0.000394
1023.03	0.000387

File: spectrum_2025-06-20_09-06-40_absorbance.txt
# Wavelength	Absorbance
197.78 -0.029427
200.433 1.163502
203.089 0.214427
205.748 2.682145
208.408 2.970812
211.072 0.376946
213.738 2.985426
216.406 0.029847
219.077 -0.099919
221.75 3.183555
224.426 2.719331
227.105 2.294466
229.786 0.453234
232.469 -0.628670
235.155 0.355047
237.843 1.851258
240.534 -3.139249
243.227 2.710117
245.923 3.026125
248.621 2.727541
251.321 2.736397
254.024 0.627226
256.73 0.315598
259.438 2.975891
262.148 2.989895
264.86 -0.420028
267.575 0.089223
270.293 -2.710117
273.013 -0.435177
275.735 -2.980458
278.46 2.935507
281.187 -2.587711
283.917 0.138746
286.648 0.646050
289.383 3.074816
292.119 3.059185
294.858 3.074816
297.599 2.269513
300.343 3.270446
303.089 2.357935
305.838 3.201124
308.588 0.408509
311.341 1.050933
314.097 1.754785
316.854 0.103877
319.614 0.657308
322.377 0.683746
325.141 3.384174
327.908 0.557544
330.677 1.257086
333.449 1.276837
336.223 0.993216
338.999 1.549399
341.777 3.818094
344.558 3.886829
347.341 1.604697
350.126 0.920676
352.913 1.049901
355.703 1.380787
358.495 0.834188
361.289 4.042142
364.085 4.019947
366.884 1.191477
369.685 1.445009
372.488 1.061257
375.293 1.362128
378.1 1.194081
380.91 1.831935
383.722 1.972044
386.536 4.371972
389.352 1.248094
392.171 0.787685
394.991 0.584499
397.814 0.462221
400.639 0.399628
403.466 0.284313
406.295 0.250204
409.127 0.235468
411.961 0.225818
414.796 0.181012
417.634 0.151941
420.474 0.175461
423.316 0.191042
426.161 0.197331
429.007 0.229547
431.855 0.211097
434.706 0.251696
437.559 0.263832
440.413 0.288612
443.27 0.272006
446.129 0.301818
448.99 0.364724
451.853 0.361069
454.719 0.416344
457.586 0.447666
460.455 0.487181
463.327 0.504486
466.2 0.628728
469.076 0.684253
471.953 0.700443
474.833 0.793705
477.714 0.853609
480.598 0.929731
483.484 0.998668
486.372 1.053879
489.261 1.153845
492.153 1.036822
495.047 1.048616
497.942 1.162796
500.84 1.367289
503.74 1.159171
506.641 1.299020
509.545 1.136937
512.451 1.263628
515.358 1.371088
518.268 1.061386
521.179 1.344169
524.093 1.039272
527.008 0.986760
529.925 0.949866
532.845 0.907902
535.766 0.795019
538.689 0.679907
541.614 0.598067
544.541 0.624329
547.47 0.542533
550.401 0.463446
553.333 0.397560
556.268 0.357775
559.204 0.285649
562.143 0.250147
565.083 0.253925
568.025 0.215951
570.969 0.200502
573.915 0.186091
576.863 0.163310
579.812 0.154885
582.764 0.131920
585.717 0.132603
588.672 0.120709
591.629 0.122003
594.587 0.106828
597.548 0.102287
600.51 0.103048
603.475 0.095546
606.441 0.074997
609.409 0.096305
612.378 0.095282
615.35 0.098153
618.323 0.088440
621.298 0.087854
624.274 0.083212
627.253 0.072762
630.233 0.095448
633.215 0.112870
636.199 0.101717
639.185 0.060276
642.172 0.075873
645.161 0.048178
648.152 0.085622
651.144 0.114198
654.139 0.083182
657.135 0.091763
660.133 0.155283
663.132 0.101817
666.133 0.072426
669.136 0.105900
672.14 0.100131
675.147 0.073993
678.154 0.057016
681.164 0.063080
684.175 0.079592
687.188 0.063492
690.203 0.096206
693.219 0.081140
696.237 0.081603
699.257 0.104795
702.278 0.089406
705.301 0.094050
708.325 0.085887
711.351 0.072318
714.379 0.059590
717.409 0.114473
720.439 0.079172
723.472 0.075555
726.506 0.105620
729.542 0.081385
732.58 0.102629
735.619 0.100019
738.659 0.079708
741.701 0.045627
744.745 0.063358
747.79 0.081915
750.837 0.040999
753.886 0.074994
756.936 0.086997
759.987 0.086720
763.04 0.080887
766.095 0.076918
769.151 0.061615
772.209 0.068531
775.268 0.066543
778.329 0.044806
781.391 0.081928
784.455 0.049460
787.52 0.077841
790.587 0.100867
793.655 0.077178
796.725 0.111997
799.796 0.096738
802.869 0.019071
805.943 0.098143
809.019 0.075557
812.096 0.053749
815.174 0.059364
818.254 0.117683
821.336 0.105119
824.419 0.100546
827.503 0.073021
830.589 0.110372
833.676 0.173902
836.765 0.055576
839.855 0.083480
842.946 0.033953
846.039 0.112215
849.133 0.050898
852.229 0.049209
855.326 0.085626
858.424 0.004248
861.524 0.287198
864.625 0.184979
867.728 0.084825
870.832 0.107213
873.937 0.171682
877.044 0.073763
880.152 0.114789
883.261 0.044640
886.372 0.098407
889.484 0.001060
892.598 0.063061
895.712 0.125244
898.828 0.559675
901.946 0.372320
905.064 0.107087
908.184 -0.043894
911.306 0.090336
914.428 0.000000
917.552 0.156632
920.677 0.078172
923.804 0.155262
926.931 0.534264
930.06 -0.144322
933.191 0.164581
936.322 -0.137301
939.455 0.364683
942.589 0.007834
945.724 0.398086
948.861 1.306248
951.998 0.154761
955.137 0.112565
958.278 0.448325
961.419 -0.287304
964.562 -0.093891
967.705 0.244340
970.85 -0.174111
973.997 0.267216
977.144 3.192567
980.293 3.008600
983.442 2.610660
986.593 0.693097
989.746 -1.071494
992.899 -0.030239
996.053 2.866287
999.209 0.000000
1002.37 0.151177
1005.52 0.510534
1008.68 2.691965
1011.84 0.577690
1015 0.000000
1018.17 0.783018
1021.33 0.000000
1023.03 0.225202

File: spectrum_2025-06-20_09-16-54.txt
# Wavelength (nm)	Intensity (a.u.)
197.7802	0.001615
200.4334	0.000202
203.0892	0.000012
205.7475	-0.000325
208.4084	0.000645
211.0718	0.001551
213.7376	0.000076
216.4060	0.002057
219.0769	0.000666
221.7503	0.001172
224.4262	0.001404
227.1046	0.001109
229.7855	0.001003
232.4688	0.000371
235.1546	0.002901
237.8429	0.002184
240.5337	0.000012
243.2269	0.000771
245.9225	0.000771
248.6206	0.000666
251.3212	0.000202
254.0242	0.000033
256.7296	0.001467
259.4375	0.000708
262.1477	0.001362
264.8604	0.000371
267.5755	0.001973
270.2931	0.000329
273.0130	0.001467
275.7353	-0.000852
278.4600	0.000181
281.1871	0.000813
283.9166	0.001003
286.6484	0.000329
289.3827	0.000265
292.1193	0.001024
294.8582	0.000624
297.5995	0.001551
300.3432	0.001045
303.0892	0.000687
305.8376	0.001952
308.5883	0.000413
311.3413	0.002352
314.0967	0.000919
316.8543	0.000877
319.6143	0.001340
322.3766	-0.000557
325.1412	0.000307
327.9082	0.000919
330.6774	0.000054
333.4489	0.000877
336.2227	0.000371
338.9987	0.001130
341.7771	-0.001063
344.5577	0.000750
347.3406	0.000856
350.1257	0.001362
352.9131	0.000329
355.7027	0.001572
358.4946	0.001298
361.2888	0.002395
364.0851	-0.000936
366.8837	0.001066
369.6845	-0.000388
372.4876	0.001362
375.2928	0.001593
378.1003	0.001066
380.9100	0.000286
383.7219	0.002774
386.5359	0.000835
389.3522	0.002500
392.1706	0.004587
394.9912	0.007939
397.8140	0.010638
400.6390	0.014285
403.4661	0.017363
406.2954	0.017743
409.1269	0.020462
411.9605	0.021074
414.7962	0.020926
417.6341	0.022001
420.4741	0.024932
423.3162	0.026935
426.1605	0.024616
429.0068	0.023456
431.8553	0.023688
434.7059	0.025290
437.5586	0.023899
440.4135	0.023182
443.2703	0.027188
446.1293	0.025332
448.9904	0.022001
451.8535	0.020252
454.7188	0.018101
457.5860	0.018312
460.4554	0.017701
463.3268	0.013969
466.2003	0.015023
469.0758	0.010554
471.9533	0.010975
474.8329	0.009499
477.7145	0.007012
480.5982	0.005662
483.4838	0.006316
486.3715	0.016140
489.2612	0.003575
492.1529	0.005473
495.0466	0.003660
497.9423	0.003681
500.8400	0.002289
503.7397	0.004714
506.6414	0.003870
509.5450	0.004566
512.4506	0.003196
515.3582	0.003512
518.2677	0.002331
521.1792	0.002605
524.0927	0.004376
527.0081	0.004503
529.9254	0.005114
532.8447	0.005894
535.7659	0.007138
538.6890	0.009015
541.6140	0.010975
544.5410	0.013442
547.4699	0.016077
550.4007	0.016963
553.3333	0.021833
556.2679	0.023309
559.2044	0.022044
562.1427	0.029507
565.0829	0.035073
568.0250	0.048903
570.9690	0.096212
573.9149	0.131694
576.8626	0.150731
579.8121	0.175377
582.7635	0.220810
585.7167	0.198462
588.6718	0.167345
591.6288	0.111602
594.5875	0.145819
597.5481	0.126971
600.5105	0.154547
603.4747	0.158258
606.4407	0.136901
609.4085	0.114638
612.3781	0.110000
615.3495	0.109051
618.3227	0.091679
621.2977	0.062396
624.2745	0.074876
627.2530	0.060055
630.2333	0.049725
633.2154	0.037792
636.1992	0.039289
639.1848	0.036063
642.1721	0.026242
645.1612	0.023826
648.1520	0.025562
651.1445	0.023602
654.1388	0.028619
657.1348	0.742805
660.1325	0.042210
663.1319	0.019439
666.1330	0.021908
669.1359	0.018734
672.1404	0.027019
675.1466	0.023878
678.1545	0.026429
681.1641	0.029865
684.1754	0.026893
687.1883	0.038045
690.2029	0.031784
693.2192	0.033386
696.2371	0.027103
699.2567	0.030983
702.2779	0.027082
705.3008	0.019619
708.3253	0.033723
711.3514	0.028516
714.3791	0.031004
717.4085	0.024489
720.4395	0.023203
723.4721	0.024616
726.5063	0.029886
729.5421	0.031130
732.5795	0.033955
735.6185	0.041988
738.6591	0.033238
741.7013	0.031151
744.7450	0.026408
747.7903	0.028410
750.8372	0.034145
753.8856	0.038383
756.9356	0.043021
759.9872	0.053899
763.0403	0.043253
766.0949	0.043105
769.1510	0.042198
772.2087	0.037392
775.2679	0.025375
778.3287	0.021495
781.3909	0.031278
784.4547	0.024784
787.5199	0.025775
790.5867	0.021580
793.6550	0.020336
796.7247	0.019724
799.7959	0.017574
802.8686	0.014475
805.9428	0.017806
809.0185	0.019429
812.0956	0.014791
815.1742	0.014854
818.2542	0.013568
821.3357	0.014391
824.4186	0.010237
827.5029	0.012556
830.5887	0.009816
833.6759	0.010111
836.7646	0.008572
839.8546	0.006105
842.9461	0.006590
846.0390	0.004545
849.1333	0.004566
852.2289	0.005178
855.3260	0.010912
858.4245	0.008509
861.5243	0.007644
864.6255	0.006126
867.7281	0.004419
870.8321	0.005747
873.9374	0.004313
877.0441	0.003849
880.1521	0.008298
883.2615	0.006042
886.3722	0.007539
889.4843	0.004334
892.5977	0.006400
895.7124	0.003870
898.8284	0.004166
901.9458	0.005768
905.0644	0.005641
908.1844	0.004060
911.3057	0.003533
914.4283	0.003533
917.5521	0.005072
920.6773	0.002880
923.8037	0.002880
926.9314	0.002943
930.0604	0.003196
933.1906	0.003196
936.3221	0.002395
939.4549	0.002395
942.5889	0.003175
945.7241	0.001045
948.8606	0.000856
951.9983	0.000392
955.1373	0.002711
958.2775	0.001130
961.4189	-0.000072
964.5615	0.002374
967.7053	0.000434
970.8504	0.002690
973.9966	0.001088
977.1440	0.001762
980.2926	0.000603
983.4424	0.001572
986.5934	0.000729
989.7456	0.002521
992.8989	0.000624
996.0534	0.000476
999.2090	0.001256
1002.37	0.000202
1005.52	0.001088
1008.68	0.001193
1011.84	0.000792
1015	0.000687
1018.17	0.001024
1021.33	0.000961
1023.03	0.001003

File: spectrum_2025-06-20_09-16-54_absorbance.txt
# Wavelength	Absorbance
197.78 -0.329651
200.433 0.703249
203.089 1.955447
205.748 2.682145
208.408 0.161252
211.072 -0.086125
213.738 1.104613
216.406 -0.411231
219.077 0.166865
221.75 0.114627
224.426 -0.428036
227.105 -0.750465
229.786 -0.209610
232.469 -0.610333
235.155 -0.056348
237.843 -1.487994
240.534 -1.079181
243.227 -0.176937
245.923 0.139070
248.621 -0.095933
251.321 0.431045
254.024 1.354225
256.73 -0.140715
259.438 0.125858
262.148 -0.144283
264.86 0.093384
267.575 -0.495787
270.293 -2.517196
273.013 -0.367090
275.735 0.000000
278.46 0.677829
281.187 -2.910091
283.917 -0.135014
286.648 0.423321
289.383 0.651571
292.119 0.048885
294.858 0.279632
297.599 -0.921099
300.343 0.251330
303.089 -0.479022
305.838 -0.089356
308.588 0.626343
311.341 -0.074992
314.097 -0.363432
316.854 0.150772
319.614 0.117914
322.377 3.460447
325.141 0.897036
327.908 0.545080
330.677 1.903090
333.449 0.712235
336.223 1.096863
338.999 0.686652
341.777 3.818094
344.558 1.011768
347.341 0.966690
350.126 0.776394
352.913 1.379661
355.703 0.794995
358.495 0.846720
361.289 0.662837
364.085 4.019947
366.884 1.035876
369.685 4.136974
372.488 1.046006
375.293 0.980113
378.1 1.225508
380.91 1.884772
383.722 0.907335
386.536 1.450286
389.352 1.002443
392.171 0.783499
394.991 0.569246
397.814 0.496210
400.639 0.383430
403.466 0.282885
406.295 0.306442
409.127 0.227500
411.961 0.210038
414.796 0.225251
417.634 0.199037
420.474 0.208181
423.316 0.201320
426.161 0.182362
429.007 0.234005
431.855 0.228703
434.706 0.212886
437.559 0.255503
440.413 0.291934
443.27 0.277877
446.129 0.320410
448.99 0.373962
451.853 0.385400
454.719 0.392576
457.586 0.428390
460.455 0.465577
463.327 0.541650
466.2 0.566683
469.076 0.623868
471.953 0.566696
474.833 0.684730
477.714 0.803717
480.598 0.981446
483.484 0.929573
486.372 1.013618
489.261 1.173557
492.153 0.959936
495.047 1.144481
497.942 1.128692
500.84 1.341896
503.74 1.073268
506.641 1.140415
509.545 1.027752
512.451 1.137600
515.358 1.080806
518.268 1.249301
521.179 1.168161
524.093 0.943378
527.008 0.925435
529.925 0.898448
532.845 0.825912
535.766 0.788522
538.689 0.685983
541.614 0.622495
544.541 0.584497
547.47 0.493875
550.401 0.433397
553.333 0.377115
556.268 0.373762
559.204 0.318607
562.143 0.282922
565.083 0.245157
568.025 0.214492
570.969 0.204170
573.915 0.189399
576.863 0.180315
579.812 0.151584
582.764 0.134213
585.717 0.130231
588.672 0.116460
591.629 0.117477
594.587 0.101020
597.548 0.113864
600.51 0.100876
603.475 0.101041
606.441 0.085112
609.409 0.082933
612.378 0.090515
615.35 0.093598
618.323 0.082050
621.298 0.089265
624.274 0.073689
627.253 0.075739
630.233 0.098798
633.215 0.087383
636.199 0.050010
639.185 0.051518
642.172 0.089236
645.161 0.062802
648.152 0.068309
651.144 0.098841
654.139 0.086929
657.135 0.087726
660.133 0.115295
663.132 0.067256
666.133 0.046449
669.136 0.079841
672.14 0.097260
675.147 0.055356
678.154 0.042394
681.164 0.062367
684.175 0.107487
687.188 0.071813
690.203 0.041512
693.219 0.077496
696.237 0.045535
699.257 0.067021
702.278 0.050721
705.301 0.096081
708.325 0.060088
711.351 0.024688
714.379 0.039537
717.409 0.060137
720.439 0.091808
723.472 0.055941
726.506 0.057248
729.542 0.073871
732.58 0.108473
735.619 0.066698
738.659 0.090534
741.701 0.033009
744.745 0.050523
747.79 0.050360
750.837 0.058561
753.886 0.056183
756.936 0.078835
759.987 0.056163
763.04 0.054924
766.095 0.066384
769.151 0.065090
772.209 0.044830
775.268 0.060545
778.329 0.075818
781.391 0.070562
784.455 0.097862
787.52 0.057665
790.587 0.086795
793.655 0.075980
796.725 0.077383
799.796 0.100013
802.869 0.041979
805.943 0.042951
809.019 0.101796
812.096 0.037475
815.174 0.050144
818.254 0.049213
821.336 0.087693
824.419 0.036088
827.503 0.070941
830.589 0.026225
833.676 0.051234
836.765 0.010561
839.855 0.115227
842.946 -0.104053
846.039 0.144966
849.133 0.083503
852.229 0.049041
855.326 0.130328
858.424 0.055009
861.524 0.023284
864.625 0.063102
867.728 0.063267
870.832 0.047349
873.937 0.112321
877.044 0.101199
880.152 0.034979
883.261 -0.000144
886.372 -0.047560
889.484 0.017384
892.598 -0.022134
895.712 0.129710
898.828 0.141080
901.946 -0.089852
905.064 -0.022678
908.184 -0.044215
911.306 0.115180
914.428 -0.038269
917.552 -0.035862
920.677 0.054624
923.804 0.157818
926.931 -0.128346
930.06 -0.168347
933.191 -0.110856
936.322 -0.227017
939.455 0.068163
942.589 -0.248891
945.724 0.453786
948.861 0.332816
951.998 0.651733
955.137 -0.593023
958.278 -0.226356
961.419 2.653213
964.562 -0.122628
967.705 0.514799
970.85 -0.719635
973.997 -0.041872
977.144 -0.053438
980.293 0.228283
983.442 -0.585792
986.593 -0.042526
989.746 -1.277721
992.899 0.071103
996.053 0.188680
999.209 -3.098990
1002.37 0.294532
1005.52 0.146926
1008.68 -0.384675
1011.84 -0.026569
1015 -2.836957
1018.17 0.221424
1021.33 -2.982723
1023.03 -0.188388