Folder: Auto_Polymerization/Auto_Polymerization/Data/UV_VIS_Spectra/MRG-061-F-3_pure_compounds_spectra_test (part 3)

File: DMSO+CTA_spectrum_average_absorbance.txt
# Wavelength	Absorbance
197.78 1.215764
200.433 -0.070581
203.089 0.920685
205.748 2.682145
208.408 0.223400
211.072 3.104487
213.738 0.386636
216.406 2.902003
219.077 0.294857
221.75 3.183555
224.426 0.605388
227.105 2.294466
229.786 -0.236067
232.469 -0.663173
235.155 0.314884
237.843 1.851258
240.534 0.000000
243.227 2.710117
245.923 0.459098
248.621 0.367706
251.321 0.040915
254.024 0.159248
256.73 0.130846
259.438 0.480347
262.148 0.374997
264.86 0.278942
267.575 2.799341
270.293 -2.465383
273.013 2.799341
275.735 -2.924796
278.46 2.935507
281.187 -2.475671
283.917 -0.197046
286.648 2.940516
289.383 0.089390
292.119 3.059185
294.858 0.176640
297.599 2.269513
300.343 0.131827
303.089 0.056905
305.838 0.427337
308.588 0.709539
311.341 1.470371
314.097 2.599883
316.854 0.280191
319.614 0.872107
322.377 0.421429
325.141 3.384174
327.908 1.220593
330.677 0.607727
333.449 0.871331
336.223 3.666237
338.999 1.297251
341.777 1.434279
344.558 1.421446
347.341 1.384616
350.126 1.386825
352.913 2.070782
355.703 1.070803
358.495 3.959995
361.289 1.140139
364.085 2.622007
366.884 1.791792
369.685 1.651253
372.488 1.182360
375.293 0.715461
378.1 0.681324
380.91 0.598727
383.722 0.361304
386.536 0.260273
389.352 0.189636
392.171 0.144106
394.991 0.072830
397.814 0.075245
400.639 0.078134
403.466 0.060007
406.295 0.044014
409.127 0.033257
411.961 0.032616
414.796 0.040354
417.634 0.022742
420.474 0.051286
423.316 0.021679
426.161 0.043072
429.007 0.042740
431.855 0.024924
434.706 0.044440
437.559 0.050128
440.413 0.076376
443.27 0.065155
446.129 0.087932
448.99 0.094978
451.853 0.099214
454.719 0.088581
457.586 0.120478
460.455 0.164216
463.327 0.173571
466.2 0.161524
469.076 0.185937
471.953 0.210797
474.833 0.253423
477.714 0.266210
480.598 0.303809
483.484 0.333223
486.372 0.335928
489.261 0.394799
492.153 0.399374
495.047 0.418016
497.942 0.449392
500.84 0.485191
503.74 0.500874
506.641 0.536396
509.545 0.508340
512.451 0.522786
515.358 0.553927
518.268 0.537770
521.179 0.523083
524.093 0.486921
527.008 0.488291
529.925 0.476103
532.845 0.429862
535.766 0.413108
538.689 0.330786
541.614 0.319629
544.541 0.315195
547.47 0.273472
550.401 0.198514
553.333 0.220199
556.268 0.199220
559.204 0.155745
562.143 0.132597
565.083 0.114719
568.025 0.086825
570.969 0.091467
573.915 0.089103
576.863 0.077680
579.812 0.063232
582.764 0.035474
585.717 0.046069
588.672 0.036130
591.629 0.049978
594.587 0.033666
597.548 0.046699
600.51 0.033113
603.475 0.037170
606.441 0.008001
609.409 0.021158
612.378 0.028880
615.35 0.033484
618.323 0.019416
621.298 0.009940
624.274 0.025960
627.253 0.017179
630.233 0.027156
633.215 0.027513
636.199 0.002866
639.185 0.008413
642.172 0.024732
645.161 0.008699
648.152 0.038264
651.144 0.026451
654.139 0.032383
657.135 0.014075
660.133 -0.044050
663.132 0.032121
666.133 0.016335
669.136 0.045468
672.14 0.040167
675.147 0.043479
678.154 0.036372
681.164 0.023540
684.175 0.032411
687.188 0.018511
690.203 0.011591
693.219 0.038612
696.237 0.019009
699.257 0.011466
702.278 0.036445
705.301 0.008837
708.325 0.009558
711.351 -0.023414
714.379 0.000986
717.409 0.008971
720.439 0.018999
723.472 0.007241
726.506 0.022198
729.542 0.023329
732.58 0.046324
735.619 0.032185
738.659 0.021461
741.701 0.012678
744.745 0.008396
747.79 0.022776
750.837 0.002989
753.886 0.035201
756.936 0.022080
759.987 0.025666
763.04 0.015143
766.095 0.010600
769.151 0.031141
772.209 0.027837
775.268 0.018538
778.329 0.002519
781.391 0.041093
784.455 0.005065
787.52 0.023213
790.587 0.037498
793.655 0.046427
796.725 0.039354
799.796 0.025840
802.869 -0.002092
805.943 0.017745
809.019 0.043815
812.096 -0.002712
815.174 0.041203
818.254 0.043016
821.336 0.067642
824.419 -0.013832
827.503 0.067393
830.589 0.040756
833.676 0.108251
836.765 -0.017018
839.855 0.039797
842.946 -0.015223
846.039 0.062928
849.133 0.094094
852.229 0.059482
855.326 0.063916
858.424 -0.024479
861.524 0.164193
864.625 0.106220
867.728 -0.056407
870.832 0.127999
873.937 0.114947
877.044 -0.017689
880.152 0.053804
883.261 -0.025007
886.372 0.046279
889.484 -0.005548
892.598 0.112411
895.712 0.115469
898.828 0.096345
901.946 0.057860
905.064 0.097844
908.184 0.032704
911.306 0.063659
914.428 -0.020838
917.552 -0.001671
920.677 -0.110987
923.804 0.217883
926.931 0.016780
930.06 0.004023
933.191 0.115912
936.322 -0.051832
939.455 0.258821
942.589 0.545283
945.724 0.544507
948.861 0.501113
951.998 0.166200
955.137 -0.298197
958.278 0.119152
961.419 -0.264293
964.562 0.661788
967.705 0.228009
970.85 -0.064400
973.997 2.994757
977.144 1.183967
980.293 1.967207
983.442 -0.136752
986.593 2.820201
989.746 -0.936846
992.899 0.550317
996.053 -0.008194
999.209 -2.064458
1002.37 -0.362960
1005.52 1.405403
1008.68 1.029207
1011.84 0.273366
1015 0.000000
1018.17 0.885371
1021.33 -2.198657
1023.03 2.812913

File: DMSO+MMA_spectrum_average.txt
# Wavelength	Average Intensity
197.78 0.000967
200.433 -0.000067
203.089 -0.000032
205.748 0.000313
208.408 0.000799
211.072 0.000482
213.738 0.000806
216.406 -0.000686
219.077 -0.000074
221.75 0.000186
224.426 0.000060
227.105 -0.000257
229.786 0.000693
232.469 0.000095
235.155 0.000897
237.843 0.000046
240.534 0.001396
243.227 0.000770
245.923 0.000735
248.621 0.000496
251.321 0.000475
254.024 0.000208
256.73 0.001333
259.438 0.001178
262.148 0.000433
264.86 -0.000580
267.575 0.001755
270.293 0.000243
273.013 0.000566
275.735 -0.000172
278.46 0.000960
281.187 0.000412
283.917 0.000559
286.648 -0.000172
289.383 0.000693
292.119 0.000032
294.858 0.001206
297.599 0.000475
300.343 0.000763
303.089 0.000573
305.838 0.000742
308.588 0.000552
311.341 0.000721
314.097 0.000229
316.854 0.001249
319.614 0.002093
322.377 0.001537
325.141 0.002740
327.908 0.002803
330.677 0.003106
333.449 0.004484
336.223 0.003781
338.999 0.005849
341.777 0.005188
344.558 0.007059
347.341 0.007284
350.126 0.007798
352.913 0.009240
355.703 0.010442
358.495 0.008803
361.289 0.010027
364.085 0.010429
366.884 0.011737
369.685 0.013341
372.488 0.013734
375.293 0.016000
378.1 0.019067
380.91 0.020495
383.722 0.022556
386.536 0.023484
389.352 0.024990
392.171 0.028528
394.991 0.030948
397.814 0.033888
400.639 0.034507
403.466 0.034198
406.295 0.035914
409.127 0.035534
411.961 0.034381
414.796 0.037363
417.634 0.036336
420.474 0.039733
423.316 0.043989
426.161 0.039748
429.007 0.041085
431.855 0.042787
434.706 0.043828
437.559 0.043659
440.413 0.044433
443.27 0.052761
446.129 0.052895
448.99 0.052466
451.853 0.050602
454.719 0.046430
457.586 0.050067
460.455 0.052396
463.327 0.048555
466.2 0.058094
469.076 0.045924
471.953 0.043427
474.833 0.046796
477.714 0.047028
480.598 0.053380
483.484 0.052516
486.372 0.181992
489.261 0.053261
492.153 0.052410
495.047 0.053570
497.942 0.049863
500.84 0.051214
503.74 0.057109
506.641 0.055090
509.545 0.048864
512.451 0.047317
515.358 0.041661
518.268 0.040521
521.179 0.039284
524.093 0.039459
527.008 0.038039
529.925 0.041183
532.845 0.039368
535.766 0.046557
538.689 0.044637
541.614 0.047219
544.541 0.051489
547.47 0.050384
550.401 0.051024
553.333 0.052839
556.268 0.056448
559.204 0.047380
562.143 0.059916
565.083 0.062033
568.025 0.083614
570.969 0.153930
573.915 0.204408
576.863 0.228937
579.812 0.248824
582.764 0.320373
585.717 0.277089
588.672 0.227412
591.629 0.144983
594.587 0.187928
597.548 0.164298
600.51 0.199232
603.475 0.199471
606.441 0.176856
609.409 0.141747
612.378 0.135177
615.35 0.131195
618.323 0.111738
621.298 0.079633
624.274 0.088834
627.253 0.072858
630.233 0.063264
633.215 0.046086
636.199 0.044011
639.185 0.042456
642.172 0.032117
645.161 0.028182
648.152 0.030055
651.144 0.029060
654.139 0.033485
657.135 0.924592
660.133 0.066681
663.132 0.021715
666.133 0.024845
669.136 0.021388
672.14 0.032502
675.147 0.026263
678.154 0.029217
681.164 0.034149
684.175 0.034170
687.188 0.043913
690.203 0.034985
693.219 0.039410
696.237 0.029970
699.257 0.036477
702.278 0.029013
705.301 0.024322
708.325 0.039410
711.351 0.032488
714.379 0.035478
717.409 0.028894
720.439 0.028022
723.472 0.028739
726.506 0.035281
729.542 0.036104
732.58 0.042836
735.619 0.047746
738.659 0.041289
741.701 0.035689
744.745 0.030870
747.79 0.032032
750.837 0.041134
753.886 0.041394
756.936 0.051565
759.987 0.060942
763.04 0.048801
766.095 0.052164
769.151 0.048998
772.209 0.042942
775.268 0.031531
778.329 0.026108
781.391 0.034816
784.455 0.031553
787.52 0.028873
790.587 0.026249
793.655 0.023252
796.725 0.021613
799.796 0.021325
802.869 0.017456
805.943 0.019404
809.019 0.023034
812.096 0.016647
815.174 0.017688
818.254 0.014241
821.336 0.015887
824.419 0.011385
827.503 0.013847
830.589 0.011470
833.676 0.010323
836.765 0.008037
839.855 0.007952
842.946 0.005723
846.039 0.006018
849.133 0.005033
852.229 0.006672
855.326 0.014325
858.424 0.010414
861.524 0.006328
864.625 0.007467
867.728 0.005659
870.832 0.005969
873.937 0.005533
877.044 0.005026
880.152 0.007868
883.261 0.007115
886.372 0.006567
889.484 0.005223
892.598 0.005082
895.712 0.004843
898.828 0.004527
901.946 0.004773
905.064 0.005111
908.184 0.004822
911.306 0.003239
914.428 0.003127
917.552 0.004041
920.677 0.003387
923.804 0.002585
926.931 0.002951
930.06 0.002212
933.191 0.001614
936.322 0.002205
939.455 0.001678
942.589 0.001059
945.724 0.001664
948.861 0.000608
951.998 0.001150
955.137 0.001164
958.278 0.000700
961.419 0.000658
964.562 0.001720
967.705 -0.000004
970.85 0.000714
973.997 0.001685
977.144 0.001016
980.293 0.000742
983.442 0.000109
986.593 0.000221
989.746 0.000046
992.899 -0.000510
996.053 0.000707
999.209 0.000067
1002.37 0.000271
1005.52 0.001206
1008.68 0.000292
1011.84 0.001530
1015 0.000264
1018.17 -0.000179
1021.33 0.000088
1023.03 0.000017

File: DMSO+MMA_spectrum_average_absorbance.txt
# Wavelength	Absorbance
197.78 -0.106905
200.433 3.008600
203.089 3.034628
205.748 0.186601
208.408 0.068265
211.072 0.421440
213.738 0.079091
216.406 2.902003
219.077 2.990339
221.75 0.914042
224.426 0.941180
227.105 2.294466
229.786 -0.049043
232.469 -0.018682
235.155 0.453407
237.843 0.188501
240.534 -3.144885
243.227 -0.176373
245.923 0.159837
248.621 0.032060
251.321 0.059703
254.024 0.554675
256.73 -0.099115
259.438 -0.095254
262.148 0.353407
264.86 2.662758
267.575 -0.444937
270.293 -2.385606
273.013 0.046524
275.735 0.000000
278.46 -0.046764
281.187 -2.614897
283.917 0.118876
286.648 2.940516
289.383 0.234083
292.119 1.554035
294.858 -0.006531
297.599 -0.407181
300.343 0.387921
303.089 -0.400220
305.838 0.330720
308.588 0.500354
311.341 0.438511
314.097 0.240048
316.854 -0.002791
319.614 -0.075750
322.377 0.273773
325.141 -0.053576
327.908 0.060772
330.677 0.143282
333.449 0.003569
336.223 0.088630
338.999 -0.027351
341.777 0.103094
344.558 0.038086
347.341 0.036794
350.126 0.018588
352.913 -0.068815
355.703 -0.027336
358.495 0.015364
361.289 0.040971
364.085 0.001704
366.884 -0.005924
369.685 0.011786
372.488 0.042386
375.293 -0.021791
378.1 -0.027017
380.91 0.029490
383.722 -0.002820
386.536 0.001200
389.352 0.002616
392.171 -0.010243
394.991 -0.021621
397.814 -0.006976
400.639 0.000403
403.466 -0.011491
406.295 0.000206
409.127 -0.012196
411.961 -0.002534
414.796 -0.026504
417.634 -0.018858
420.474 0.005787
423.316 -0.011708
426.161 -0.025736
429.007 -0.009425
431.855 -0.028081
434.706 -0.025917
437.559 -0.006191
440.413 0.009379
443.27 -0.010059
446.129 0.000665
448.99 -0.003474
451.853 -0.012300
454.719 -0.016520
457.586 -0.008426
460.455 -0.005724
463.327 0.000581
466.2 -0.020692
469.076 -0.014755
471.953 -0.030659
474.833 -0.007800
477.714 -0.022798
480.598 0.007037
483.484 0.009723
486.372 -0.038531
489.261 0.000424
492.153 -0.021253
495.047 -0.020960
497.942 -0.003121
500.84 -0.007847
503.74 -0.010047
506.641 -0.012946
509.545 -0.001701
512.451 -0.032810
515.358 0.006631
518.268 0.009163
521.179 -0.010247
524.093 -0.011690
527.008 -0.001292
529.925 -0.007510
532.845 0.001179
535.766 -0.025887
538.689 -0.008747
541.614 -0.011217
544.541 0.001247
547.47 -0.002212
550.401 -0.044875
553.333 -0.006726
556.268 -0.010363
559.204 -0.013697
562.143 -0.024696
565.083 -0.002493
568.025 -0.018451
570.969 0.000076
573.915 -0.001532
576.863 -0.001199
579.812 -0.000335
582.764 -0.027424
585.717 -0.014711
588.672 -0.016740
591.629 0.003832
594.587 -0.009157
597.548 0.001936
600.51 -0.009422
603.475 0.000527
606.441 -0.026101
609.409 -0.009253
612.378 0.001004
615.35 0.013310
618.323 -0.003881
621.298 -0.016672
624.274 -0.000548
627.253 -0.008189
630.233 -0.005784
633.215 0.001214
636.199 0.000720
639.185 -0.019360
642.172 0.001498
645.161 -0.010118
648.152 -0.002013
651.144 0.008495
654.139 0.018734
657.135 -0.007349
660.133 -0.083292
663.132 0.019170
666.133 -0.008187
669.136 0.022302
672.14 0.017019
675.147 0.014009
678.154 -0.001161
681.164 0.004151
684.175 0.003481
687.188 0.009518
690.203 -0.000161
693.219 0.005454
696.237 0.001865
699.257 -0.003875
702.278 0.020809
705.301 0.002759
708.325 -0.007593
711.351 -0.031946
714.379 -0.019004
717.409 -0.011700
720.439 0.009853
723.472 -0.011314
726.506 -0.014825
729.542 0.009495
732.58 0.007568
735.619 0.010887
738.659 -0.003665
741.701 -0.026053
744.745 -0.017278
747.79 -0.001753
750.837 -0.022313
753.886 0.023385
756.936 0.000160
759.987 0.002827
763.04 0.002511
766.095 -0.016460
769.151 0.000204
772.209 -0.015274
775.268 -0.033786
778.329 -0.008618
781.391 0.024022
784.455 -0.007007
787.52 0.008372
790.587 0.001734
793.655 0.017786
796.725 0.037663
799.796 0.015994
802.869 -0.039347
805.943 0.005626
809.019 0.027877
812.096 -0.013863
815.174 -0.025691
818.254 0.028189
821.336 0.044742
824.419 -0.010072
827.503 0.028436
830.589 -0.041404
833.676 0.042222
836.765 0.038549
839.855 0.000437
842.946 -0.042791
846.039 0.023048
849.133 0.041212
852.229 -0.061053
855.326 0.012138
858.424 -0.032730
861.524 0.105338
864.625 -0.022868
867.728 -0.044149
870.832 0.030889
873.937 0.004140
877.044 -0.014676
880.152 0.058089
883.261 -0.071138
886.372 0.012387
889.484 -0.063647
892.598 0.078012
895.712 0.032306
898.828 0.104989
901.946 -0.007619
905.064 0.020172
908.184 -0.118916
911.306 0.152913
914.428 0.014746
917.552 0.062828
920.677 -0.015799
923.804 0.204750
926.931 -0.129525
930.06 -0.008526
933.191 0.185847
936.322 -0.191120
939.455 0.222676
942.589 0.227957
945.724 0.251749
948.861 0.481386
951.998 0.184321
955.137 -0.225847
958.278 -0.018376
961.419 -0.165013
964.562 0.017325
967.705 3.152288
970.85 -0.143581
973.997 -0.231843
977.144 0.185674
980.293 0.138196
983.442 0.573234
986.593 0.475809
989.746 0.461094
992.899 2.866287
996.053 0.016868
999.209 -1.826075
1002.37 0.166914
1005.52 0.102207
1008.68 0.226582
1011.84 -0.312535
1015 -2.421604
1018.17 3.231724
1021.33 -1.944483
1023.03 1.582464

File: DMSO+MMA_spectrum_average_referenced_to_DMSO.txt
# Wavelength	Intensity diff (sample - DMSO)
197.78 0.000211
200.433 -0.001087
203.089 -0.001115
205.748 -0.000168
208.408 -0.000136
211.072 -0.000790
213.738 -0.000161
216.406 -0.001484
219.077 -0.001052
221.75 -0.001340
224.426 -0.000464
227.105 -0.000454
229.786 0.000074
232.469 0.000004
235.155 -0.001651
237.843 -0.000025
240.534 0.001715
243.227 0.000257
245.923 -0.000327
248.621 -0.000038
251.321 -0.000070
254.024 -0.000538
256.73 0.000272
259.438 0.000232
262.148 -0.000544
264.86 -0.001040
267.575 0.001125
270.293 0.000468
273.013 -0.000064
275.735 0.000158
278.46 0.000098
281.187 0.000891
283.917 -0.000176
286.648 -0.001044
289.383 -0.000495
292.119 -0.001114
294.858 0.000018
297.599 0.000289
300.343 -0.001101
303.089 0.000345
305.838 -0.000847
308.588 -0.001195
311.341 -0.001258
314.097 -0.000169
316.854 0.000008
319.614 0.000335
322.377 -0.001350
325.141 0.000318
327.908 -0.000421
330.677 -0.001214
333.449 -0.000037
336.223 -0.000856
338.999 0.000357
341.777 -0.001390
344.558 -0.000647
347.341 -0.000644
350.126 -0.000341
352.913 0.001354
355.703 0.000637
358.495 -0.000317
361.289 -0.000992
364.085 -0.000041
366.884 0.000159
369.685 -0.000367
372.488 -0.001408
375.293 0.000783
378.1 0.001150
380.91 -0.001440
383.722 0.000146
386.536 -0.000065
389.352 -0.000151
392.171 0.000665
394.991 0.001503
397.814 0.000540
400.639 -0.000032
403.466 0.000893
406.295 -0.000017
409.127 0.000984
411.961 0.000200
414.796 0.002212
417.634 0.001544
420.474 -0.000533
423.316 0.001170
426.161 0.002287
429.007 0.000882
431.855 0.002679
434.706 0.002539
437.559 0.000618
440.413 -0.000970
443.27 0.001208
446.129 -0.000081
448.99 0.000418
451.853 0.001413
454.719 0.001733
457.586 0.000962
460.455 0.000686
463.327 -0.000065
466.2 0.002703
469.076 0.001534
471.953 0.002960
474.833 0.000833
477.714 0.002405
480.598 -0.000872
483.484 -0.001189
486.372 0.015451
489.261 -0.000052
492.153 0.002503
495.047 0.002524
497.942 0.000357
500.84 0.000917
503.74 0.001306
506.641 0.001618
509.545 0.000191
512.451 0.003443
515.358 -0.000641
518.268 -0.000864
521.179 0.000916
524.093 0.001048
527.008 0.000113
529.925 0.000706
532.845 -0.000107
535.766 0.002694
538.689 0.000890
541.614 0.001204
544.541 -0.000148
547.47 0.000256
550.401 0.005009
553.333 0.000812
556.268 0.001331
559.204 0.001471
562.143 0.003312
565.083 0.000355
568.025 0.003478
570.969 -0.000027
573.915 0.000720
576.863 0.000631
579.812 0.000192
582.764 0.019605
585.717 0.009229
588.672 0.008599
591.629 -0.001285
594.587 0.003921
597.548 -0.000734
600.51 0.004276
603.475 -0.000242
606.441 0.010316
609.409 0.002988
612.378 -0.000313
615.35 -0.004083
618.323 0.000994
621.298 0.002999
624.274 0.000112
627.253 0.001361
630.233 0.000837
633.215 -0.000129
636.199 -0.000073
639.185 0.001851
642.172 -0.000111
645.161 0.000649
648.152 0.000139
651.144 -0.000574
654.139 -0.001476
657.135 0.015515
660.133 0.011637
663.132 -0.000980
666.133 0.000464
669.136 -0.001127
672.14 -0.001299
675.147 -0.000861
678.154 0.000078
681.164 -0.000328
684.175 -0.000275
687.188 -0.000973
690.203 0.000013
693.219 -0.000498
696.237 -0.000129
699.257 0.000324
702.278 -0.001424
705.301 -0.000155
708.325 0.000683
711.351 0.002304
714.379 0.001519
717.409 0.000768
720.439 -0.000643
723.472 0.000739
726.506 0.001184
729.542 -0.000798
732.58 -0.000753
735.619 -0.001212
738.659 0.000347
741.701 0.002078
744.745 0.001204
747.79 0.000129
750.837 0.002060
753.886 -0.002290
756.936 -0.000019
759.987 -0.000398
763.04 -0.000283
766.095 0.001940
769.151 -0.000023
772.209 0.001484
775.268 0.002360
778.329 0.000513
781.391 -0.001980
784.455 0.000505
787.52 -0.000562
790.587 -0.000105
793.655 -0.000972
796.725 -0.001958
799.796 -0.000800
802.869 0.001512
805.943 -0.000253
809.019 -0.001527
812.096 0.000523
815.174 0.001016
818.254 -0.000955
821.336 -0.001724
824.419 0.000261
827.503 -0.000937
830.589 0.001043
833.676 -0.001054
836.765 -0.000746
839.855 -0.000008
842.946 0.000537
846.039 -0.000328
849.133 -0.000501
852.229 0.000875
855.326 -0.000406
858.424 0.000756
861.524 -0.001737
864.625 0.000383
867.728 0.000547
870.832 -0.000440
873.937 -0.000053
877.044 0.000167
880.152 -0.001126
883.261 0.001075
886.372 -0.000190
889.484 0.000712
892.598 -0.001000
895.712 -0.000374
898.828 -0.001238
901.946 0.000083
905.064 -0.000243
908.184 0.001155
911.306 -0.001367
914.428 -0.000108
917.552 -0.000629
920.677 0.000121
923.804 -0.001557
926.931 0.000761
930.06 0.000043
933.191 -0.000862
936.322 0.000785
939.455 -0.001124
942.589 -0.000731
945.724 -0.001307
948.861 -0.001234
951.998 -0.000608
955.137 0.000472
958.278 0.000029
961.419 0.000208
964.562 -0.000070
967.705 -0.001424
970.85 0.000201
973.997 0.000697
977.144 -0.000542
980.293 -0.000278
983.442 -0.000299
986.593 -0.000440
989.746 -0.000087
992.899 -0.001245
996.053 -0.000028
999.209 0.000218
1002.37 -0.000127
1005.52 -0.000320
1008.68 -0.000200
1011.84 0.000785
1015 0.000584
1018.17 -0.001884
1021.33 0.000134
1023.03 -0.000633