Folder: Auto_Polymerization/Auto_Polymerization/Data/UV_VIS_Spectra/MRG-061-F-3_pure_compounds_spectra_test

Note: README.md
# Auto_Polymerization

[![Python 3.10](https://img.shields.io/badge/python-3.10-blue.svg)](https://www.python.org/downloads/)
[![License: MIT](https://img.shields.io/badge/License-MIT-yellow.svg)](https://opensource.org/licenses/MIT)

This repository contains the **Auto_Polymerization platform** for automated polymer synthesis and characterization.

## ğŸš€ Quick Start

### Device Testing

For testing real devices in your Auto_Polymerization platform, see the demo folder:

```bash
cd Auto_Polymerization/demo
python demo_device_test.py
```

This will guide you through testing individual devices with safe parameters.

For comprehensive device testing:

```bash
cd Auto_Polymerization/demo
python device_test_controller.py
```

ğŸ“– See [`Auto_Polymerization/demo/DEVICE_TESTING_README.md`](Auto_Polymerization/demo/DEVICE_TESTING_README.md) for detailed documentation.

## ğŸ“¦ Required Packages and Setup

### ğŸ”§ Hardware Drivers

Install drivers for the devices used in this project:

- **[Thorlabs CCS200 Spectrometer](https://www.thorlabs.com/thorproduct.cfm?partnumber=CCS200#ad-image-0)** - UV-VIS spectroscopy
- **[Thorlabs upLED Controller](https://www.thorlabs.com/thorproduct.cfm?partnumber=UPLED)** - LED control

### ğŸ Python Environment

**Python Version:** 3.10

Install the linear actuator and valves control package from the local source in editable mode:

```bash
pip install -e src/linear_actuator_and_valves/
```

### ğŸ“š Core Dependencies

```bash
pip install scipy numpy pandas matplotlib pyserial nmrglue requests pyyaml medusa-sdl
```

### ğŸ”¬ MatterLab Packages

Install from [MatterLab devices repository](https://gitlab.com/aspuru-guzik-group/self-driving-lab/devices):

#### Easy Installation (if available):
```bash
pip install matterlab_hotplates
pip install matterlab_pumps
pip install matterlab_serial_device
```

#### Manual Installation:

**Hotplates, Pumps, Serial Device:**

https://gitlab.com/aspuru-guzik-group/self-driving-lab/devices



**Spectrometers:**

- **NMR (Nanalysis Benchtop):**

  git clone https://gitlab.com/aspuru-guzik-group/self-driving-lab/devices/nmr
  cd nmr
  git checkout develop
  pip install -e .


- **UV-VIS (Thorlabs CCS200):**

  git clone https://gitlab.com/aspuru-guzik-group/self-driving-lab/devices/spectrometer
  cd spectrometer
  git checkout develop
  pip install -e .


> **Note:** If access is not public, contact Han Hao at University of Toronto.

### âš™ï¸ Configuration

**CSS200 Spectrometer DLL:**
Potentially you need to update the `DLL_FILE` value in `ccs_spectrometer.py` in the matterlab package:
The correct file path is typically: 
DLL_FILE = Path(r"C:\Program Files\IVI Foundation\VISA\Win64\Bin\TLCCS_64.dll")
#

**Arduino Setup:**
1. Install Arduino IDE on your PC
2. Upload the Arduino code from `users/setup/` to your Arduino board
3. An overview of the hardware connections of the GPIO pins is given in "Arduino_contacts_overview_2025_06_27_bb.jpg"
## âš ï¸ Important Notes



## ğŸ“ Project Struc

File: DMSO+AIBN_spectrum_2025-06-19_14-42-43.txt
# Wavelength (nm)	Intensity (a.u.)
197.7802	0.001033
200.4334	-0.000443
203.0892	0.001350
205.7475	0.000021
208.4084	0.001097
211.0718	0.000907
213.7376	0.003121
216.4060	0.000274
219.0769	0.000654
221.7503	0.000443
224.4262	0.000949
227.1046	-0.000021
229.7855	0.000380
232.4688	0.001202
235.1546	0.000548
237.8429	-0.000190
240.5337	0.002067
243.2269	0.001603
245.9225	0.000548
248.6206	0.000591
251.3212	0.001729
254.0242	0.001751
256.7296	0.002404
259.4375	0.001012
262.1477	0.001898
264.8604	0.001645
267.5755	0.001497
270.2931	0.000886
273.0130	0.000654
275.7353	0.001097
278.4600	0.001540
281.1871	0.000780
283.9166	0.000464
286.6484	0.001097
289.3827	0.001012
292.1193	0.000316
294.8582	0.001413
297.5995	0.000717
300.3432	0.001434
303.0892	0.000359
305.8376	0.000717
308.5883	0.001392
311.3413	0.001308
314.0967	-0.000591
316.8543	0.001519
319.6143	0.002151
322.3766	0.002510
325.1412	0.001982
327.9082	0.004788
330.6774	0.002847
333.4489	0.001708
336.2227	0.001898
338.9987	0.004302
341.7771	0.002826
344.5577	0.003754
347.3406	0.003775
350.1257	0.004007
352.9131	0.003902
355.7027	0.005441
358.4946	0.004872
361.2888	0.005779
364.0851	0.006306
366.8837	0.008225
369.6845	0.007719
372.4876	0.007972
375.2928	0.011811
378.1003	0.014278
380.9100	0.017294
383.7219	0.017990
386.5359	0.020669
389.3522	0.021175
392.1706	0.026321
394.9912	0.029295
397.8140	0.031509
400.6390	0.031678
403.4661	0.032268
406.2954	0.035221
409.1269	0.034588
411.9605	0.033217
414.7962	0.034377
417.6341	0.036254
420.4741	0.037435
423.3162	0.041653
426.1605	0.036824
429.0068	0.038110
431.8553	0.041970
434.7059	0.042117
437.5586	0.044184
440.4135	0.043847
443.2703	0.054287
446.1293	0.053823
448.9904	0.052388
451.8535	0.049267
454.7188	0.045471
457.5860	0.047200
460.4554	0.047791
463.3268	0.047032
466.2003	0.055046
469.0758	0.044944
471.9533	0.041211
474.8329	0.046040
477.7145	0.045787
480.5982	0.052220
483.4838	0.051250
486.3715	0.163134
489.2612	0.052789
492.1529	0.050322
495.0466	0.049626
497.9423	0.049056
500.8400	0.048972
503.7397	0.054076
506.6414	0.053759
509.5450	0.048339
512.4506	0.045766
515.3582	0.043320
518.2677	0.042898
521.1792	0.038848
524.0927	0.038448
527.0081	0.038469
529.9254	0.039165
532.8447	0.039502
535.7659	0.043214
538.6890	0.043784
541.6140	0.046357
544.5410	0.049900
547.4699	0.049183
550.4007	0.048866
553.3333	0.049394
556.2679	0.052199
559.2044	0.046821
562.1427	0.058209
565.0829	0.060108
568.0250	0.081135
570.9690	0.152715
573.9149	0.199473
576.8626	0.218454
579.8121	0.241885
582.7635	0.298576
585.7167	0.260382
588.6718	0.215628
591.6288	0.144659
594.5875	0.183296
597.5481	0.156216
600.5105	0.192070
603.4747	0.196246
606.4407	0.166276
609.4085	0.132658
612.3781	0.134093
615.3495	0.126669
618.3227	0.109607
621.2977	0.076410
624.2745	0.086365
627.2530	0.071581
630.2333	0.059897
633.2154	0.044627
636.1992	0.044437
639.1848	0.039165
642.1721	0.032150
645.1612	0.028348
648.1520	0.029705
651.1445	0.028940
654.1388	0.031665
657.1348	0.848747
660.1325	0.054177
663.1319	0.022420
666.1330	0.025050
669.1359	0.021765
672.1404	0.033091
675.1466	0.027586
678.1545	0.030159
681.1641	0.033112
684.1754	0.035959
687.1883	0.041759
690.2029	0.035601
693.2192	0.038131
696.2371	0.028936
699.2567	0.034926
702.2779	0.029695
705.3008	0.022525
708.3253	0.037984
711.3514	0.031024
714.3791	0.036339
717.4085	0.028050
720.4395	0.026595
723.4721	0.028577
726.5063	0.033955
729.5421	0.036929
732.5795	0.042455
735.6185	0.047685
738.6591	0.041316
741.7013	0.033470
744.7450	0.028746
747.7903	0.031256
750.8372	0.039945
753.8856	0.042160
756.9356	0.049963
759.9872	0.059158
763.0403	0.048803
766.0949	0.047559
769.1510	0.048065
772.2087	0.041464
775.2679	0.031193
778.3287	0.028767
781.3909	0.035959
784.4547	0.032226
787.5199	0.031172
790.5867	0.025456
793.6550	0.024591
796.7247	0.022714
799.7959	0.020626
802.8686	0.018475
805.9428	0.018306
809.0185	0.023895
812.0956	0.015923
815.1742	0.016472
818.2542	0.015501
821.3357	0.015649
824.4186	0.011790
827.5029	0.014152
830.5887	0.010398
833.6759	0.009006
836.7646	0.008774
839.8546	0.009174
842.9461	0.005357
846.0390	0.006285
849.1333	0.005399
852.2289	0.005884
855.3260	0.011515
858.4245	0.011157
861.5243	0.006095
864.6255	0.006686
867.7281	0.006833
870.8321	0.006981
873.9374	0.004218
877.0441	0.004556
880.1521	0.008225
883.2615	0.005800
886.3722	0.006854
889.4843	0.005526
892.5977	0.005315
895.7124	0.005167
898.8284	0.006011
901.9458	0.005990
905.0644	0.005125
908.1844	0.003016
911.3057	0.004935
914.4283	0.004324
917.5521	0.006559
920.6773	0.004324
923.8037	0.003670
926.9314	0.002615
930.0604	0.003796
933.1906	0.001877
936.3221	0.002552
939.4549	0.003142
942.5889	0.001687
945.7241	0.001772
948.8606	0.003037
951.9983	0.003902
955.1373	0.001118
958.2775	0.001708
961.4189	0.001160
964.5615	0.001982
967.7053	0.001666
970.8504	0.002025
973.9966	0.000464
977.1440	0.003269
980.2926	0.001287
983.4424	0.002004
986.5934	0.000253
989.7456	0.001181
992.8989	0.001223
996.0534	0.002868
999.2090	0.001181
1002.37	0.000127
1005.52	0.000169
1008.68	0.002236
1011.84	0.000253
1015	0.001645
1018.17	-0.000021
1021.33	0.000886
1023.03	0.000464

File: DMSO+AIBN_spectrum_2025-06-19_14-43-24.txt
# Wavelength (nm)	Intensity (a.u.)
197.7802	0.001004
200.4334	0.000688
203.0892	-0.000157
205.7475	-0.000389
208.4084	0.000688
211.0718	-0.001127
213.7376	-0.000072
216.4060	0.000878
219.0769	0.001363
221.7503	0.000582
224.4262	0.000455
227.1046	-0.000051
229.7855	0.000139
232.4688	-0.000600
235.1546	-0.000220
237.8429	-0.000473
240.5337	0.002249
243.2269	-0.000389
245.9225	0.000878
248.6206	-0.000790
251.3212	0.001468
254.0242	0.001089
256.7296	0.000645
259.4375	0.000266
262.1477	0.001004
264.8604	-0.000072
267.5755	0.000477
270.2931	0.001004
273.0130	0.000667
275.7353	0.000329
278.4600	0.000139
281.1871	0.001553
283.9166	0.000455
286.6484	0.000582
289.3827	0.001764
292.1193	-0.000304
294.8582	-0.000346
297.5995	0.001743
300.3432	-0.000790
303.0892	0.000392
305.8376	-0.000515
308.5883	-0.000283
311.3413	0.002228
314.0967	0.000287
316.8543	0.002418
319.6143	0.002059
322.3766	0.000709
325.1412	0.001490
327.9082	0.001278
330.6774	0.000983
333.4489	0.003347
336.2227	0.002671
338.9987	0.003072
341.7771	0.002798
344.5577	0.002207
347.3406	0.003494
350.1257	0.004592
352.9131	0.004381
355.7027	0.004972
358.4946	0.003832
361.2888	0.004760
364.0851	0.005584
366.8837	0.008327
369.6845	0.007082
372.4876	0.009614
375.2928	0.010332
378.1003	0.013793
380.9100	0.016262
383.7219	0.018456
386.5359	0.019934
389.3522	0.021031
392.1706	0.022360
394.9912	0.027889
397.8140	0.031899
400.6390	0.031878
403.4661	0.031857
406.2954	0.034347
409.1269	0.034347
411.9605	0.034326
414.7962	0.035719
417.6341	0.034832
420.4741	0.042239
423.3162	0.040804
426.1605	0.036288
429.0068	0.039981
431.8553	0.039412
434.7059	0.041100
437.5586	0.042239
440.4135	0.044561
443.2703	0.051968
446.1293	0.051061
448.9904	0.050512
451.8535	0.047135
454.7188	0.046059
457.5860	0.052559
460.4554	0.050090
463.3268	0.048528
466.2003	0.053719
469.0758	0.043485
471.9533	0.041480
474.8329	0.045595
477.7145	0.044624
480.5982	0.053931
483.4838	0.050385
486.3715	0.165544
489.2612	0.052812
492.1529	0.050723
495.0466	0.051061
497.9423	0.049499
500.8400	0.049879
503.7397	0.055070
506.6414	0.053403
509.5450	0.048317
512.4506	0.045553
515.3582	0.041564
518.2677	0.041353
521.1792	0.037238
524.0927	0.037533
527.0081	0.037850
529.9254	0.040361
532.8447	0.039454
535.7659	0.042556
538.6890	0.046355
541.6140	0.044941
544.5410	0.050660
547.4699	0.048380
550.4007	0.046376
553.3333	0.052580
556.2679	0.053762
559.2044	0.045975
562.1427	0.057286
565.0829	0.061295
568.0250	0.078832
570.9690	0.155816
573.9149	0.201420
576.8626	0.226173
579.8121	0.244470
582.7635	0.302862
585.7167	0.267345
588.6718	0.218471
591.6288	0.140495
594.5875	0.185487
597.5481	0.161260
600.5105	0.194308
603.4747	0.202306
606.4407	0.167676
609.4085	0.137710
612.3781	0.131674
615.3495	0.129353
618.3227	0.110782
621.2977	0.076595
624.2745	0.088624
627.2530	0.072375
630.2333	0.061443
633.2154	0.045067
636.1992	0.043358
639.1848	0.040340
642.1721	0.031416
645.1612	0.027661
648.1520	0.030877
651.1445	0.028331
654.1388	0.033231
657.1348	0.868683
660.1325	0.053649
663.1319	0.022088
666.1330	0.025015
669.1359	0.020630
672.1404	0.031793
675.1466	0.025948
678.1545	0.030612
681.1641	0.034663
684.1754	0.035360
687.1883	0.045468
690.2029	0.032954
693.2192	0.040340
696.2371	0.027847
699.2567	0.035782
702.2779	0.029683
705.3008	0.023690
708.3253	0.037491
711.3514	0.032152
714.3791	0.036014
717.4085	0.026518
720.4395	0.027636
723.4721	0.027678
726.5063	0.032975
729.5421	0.036542
732.5795	0.042113
735.6185	0.048254
738.6591	0.039327
741.7013	0.033439
744.7450	0.029261
747.7903	0.030169
750.8372	0.039770
753.8856	0.042387
756.9356	0.050449
759.9872	0.059966
763.0403	0.047979
766.0949	0.049436
769.1510	0.048655
772.2087	0.041522
775.2679	0.030548
778.3287	0.024154
781.3909	0.036077
784.4547	0.030063
787.5199	0.028333
790.5867	0.025146
793.6550	0.021685
796.7247	0.021347
799.7959	0.021052
802.8686	0.015840
805.9428	0.019807
809.0185	0.024091
812.0956	0.016768
815.1742	0.016262
818.2542	0.013582
821.3357	0.015396
824.4186	0.011260
827.5029	0.012653
830.5887	0.009488
833.6759	0.009804
836.7646	0.008285
839.8546	0.007820
842.9461	0.006554
846.0390	0.004993
849.1333	0.004908
852.2289	0.006913
855.3260	0.013603
858.4245	0.009087
861.5243	0.004972
864.6255	0.005077
867.7281	0.005541
870.8321	0.005752
873.9374	0.003937
877.0441	0.005415
880.1521	0.008665
883.2615	0.005140
886.3722	0.006997
889.4843	0.006132
892.5977	0.003726
895.7124	0.003072
898.8284	0.004676
901.9458	0.002566
905.0644	0.005394
908.1844	0.004845
911.3057	0.003748
914.4283	0.004149
917.5521	0.004212
920.6773	0.003537
923.8037	0.002650
926.9314	0.003030
930.0604	0.002038
933.1906	0.001764
936.3221	0.001553
939.4549	0.001975
942.5889	-0.000114
945.7241	0.001574
948.8606	-0.001127
951.9983	0.001743
955.1373	0.001933
958.2775	0.001722
961.4189	0.000076
964.5615	0.000603
967.7053	-0.000072
970.8504	0.002165
973.9966	0.001405
977.1440	0.001426
980.2926	0.000434
983.4424	-0.000262
986.5934	0.000181
989.7456	0.000498
992.8989	-0.000811
996.0534	0.000287
999.2090	0.000498
1002.37	0.001827
1005.52	0.000983
1008.68	0.000139
1011.84	-0.000663
1015	-0.000557
1018.17	-0.000093
1021.33	0.000962
1023.03	0.000730

File: DMSO+AIBN_spectrum_average_absorbance.txt
# Wavelength	Absorbance
197.78 -0.062492
200.433 3.008600
203.089 0.708293
205.748 2.682145
208.408 -0.007369
211.072 1.206860
213.738 -0.017172
216.406 0.371803
219.077 0.290501
221.75 0.318451
224.426 0.026484
227.105 0.660998
229.786 0.411479
232.469 -0.120140
235.155 0.608932
237.843 1.851258
240.534 -3.165541
243.227 0.137246
245.923 0.339488
248.621 1.171239
251.321 -0.194043
254.024 -0.227632
256.73 -0.028515
259.438 0.301949
262.148 -0.215580
264.86 0.191466
267.575 -0.182025
270.293 -2.596597
273.013 -0.238882
275.735 -2.354108
278.46 0.030792
281.187 -2.745855
283.917 0.192345
286.648 0.110570
289.383 -0.092796
292.119 3.059185
294.858 0.351361
297.599 -0.607858
300.343 0.547812
303.089 -0.382428
305.838 0.520788
308.588 0.623200
311.341 0.116607
314.097 2.599883
316.854 -0.113593
319.614 0.101068
322.377 0.264547
325.141 0.174927
327.908 0.054771
330.677 0.480452
333.449 0.280303
336.223 0.320471
338.999 0.241144
341.777 0.397973
344.558 0.463255
347.341 0.433781
350.126 0.288046
352.913 0.287583
355.703 0.281500
358.495 0.326728
361.289 0.271658
364.085 0.241217
366.884 0.160272
369.685 0.257133
372.488 0.211420
375.293 0.106199
378.1 0.103092
380.91 0.133557
383.722 0.102739
386.536 0.072247
389.352 0.059899
392.171 0.052436
394.991 0.005895
397.814 0.022600
400.639 0.038128
403.466 0.006490
406.295 0.008557
409.127 0.001007
411.961 -0.001889
414.796 -0.005378
417.634 -0.005162
420.474 0.005274
423.316 0.011865
426.161 -0.001285
429.007 0.011327
431.855 -0.000563
434.706 -0.016653
437.559 -0.005036
440.413 0.012587
443.27 -0.015775
446.129 0.001396
448.99 0.002611
451.853 0.003101
454.719 -0.006299
457.586 0.002795
460.455 0.013382
463.327 0.003075
466.2 0.004081
469.076 0.007172
471.953 -0.007807
474.833 0.002207
477.714 -0.013378
480.598 0.013760
483.484 0.025350
486.372 0.006513
489.261 0.004677
492.153 -0.005061
495.047 0.003648
497.942 -0.001121
500.84 0.006008
503.74 0.005742
506.641 -0.004444
509.545 0.004250
512.451 -0.014916
515.358 -0.003487
518.268 0.004844
521.179 -0.002843
524.093 -0.001884
527.008 0.002780
529.925 0.002723
532.845 -0.003964
535.766 0.002273
538.689 -0.019129
541.614 -0.009559
544.541 0.011799
547.47 0.006397
550.401 -0.015610
553.333 0.002016
556.268 0.010463
559.204 -0.006777
562.143 -0.009756
565.083 0.003954
568.025 -0.000114
570.969 -0.001462
573.915 0.007688
576.863 0.006557
579.812 0.008555
582.764 -0.000716
585.717 0.004533
588.672 -0.001175
591.629 0.011319
594.587 -0.003886
597.548 0.015715
600.51 0.003296
603.475 0.002484
606.441 -0.005045
609.409 0.008295
612.378 0.010068
615.35 0.019279
618.323 0.001021
621.298 0.003202
624.274 0.006724
627.253 -0.002187
630.233 0.011048
633.215 0.012131
636.199 0.002500
639.185 0.004094
642.172 0.007407
645.161 -0.009193
648.152 -0.002129
651.144 0.010412
654.139 0.027207
657.135 0.022888
660.133 0.002810
663.132 0.007957
666.133 -0.004994
669.136 0.016753
672.14 0.018827
675.147 0.004248
678.154 -0.011995
681.164 0.008138
684.175 -0.006917
687.188 0.014811
690.203 0.003717
693.219 0.006027
696.237 0.024684
699.257 0.008295
702.278 0.005514
705.301 0.020583
708.325 0.013554
711.351 -0.023483
714.379 -0.021385
717.409 0.013009
720.439 0.019015
723.472 -0.001950
726.506 0.011617
729.542 0.005221
732.58 0.015084
735.619 0.010668
738.659 0.007770
741.701 0.005749
744.745 0.007993
747.79 0.016580
750.837 -0.008693
753.886 0.020551
756.936 0.007541
759.987 0.011886
763.04 0.004625
766.095 0.010644
769.151 0.008364
772.209 -0.002236
775.268 -0.017594
778.329 -0.013268
781.391 0.015095
784.455 0.002511
787.52 -0.000825
790.587 0.011505
793.655 0.018309
796.725 0.030370
799.796 0.029963
802.869 -0.031261
805.943 0.017883
809.019 0.023394
812.096 -0.009853
815.174 0.015351
818.254 0.012319
821.336 0.062742
824.419 -0.010720
827.503 0.033452
830.589 0.021429
833.676 0.095557
836.765 0.032325
839.855 -0.005099
842.946 -0.037139
846.039 0.047846
849.133 0.048259
852.229 0.001651
855.326 0.069173
858.424 -0.007799
861.524 0.138707
864.625 0.099385
867.728 -0.055062
870.832 -0.020450
873.937 0.114542
877.044 0.015096
880.152 0.023615
883.261 0.031223
886.372 0.005758
889.484 -0.092206
892.598 0.069381
895.712 0.107506
898.828 0.059231
901.946 0.015075
905.064 -0.004519
908.184 -0.024968
911.306 0.078880
914.428 -0.039006
917.552 0.003830
920.677 -0.080708
923.804 0.078888
926.931 -0.077360
930.06 -0.061159
933.191 0.213912
936.322 -0.197572
939.455 0.110209
942.589 0.258976
945.724 0.277003
948.861 0.169772
951.998 -0.123454
955.137 -0.250505
958.278 -0.219382
961.419 0.236572
964.562 0.204023
967.705 0.270904
970.85 -0.467708
973.997 0.121436
977.144 -0.072958
980.293 0.268237
983.442 -0.330354
986.593 2.820201
989.746 -0.792076
992.899 0.486076
996.053 -0.193276
999.209 -2.660865
1002.37 -0.365319
1005.52 0.386287
1008.68 0.095368
1011.84 2.872156
1015 0.000000
1018.17 0.675422
1021.33 -2.881385
1023.03 0.006055

File: DMSO+AIBN_spectrum_average_referenced_to_DMSO.txt
# Wavelength	Intensity diff (sample - DMSO)
197.78 0.000117
200.433 -0.001061
203.089 -0.000871
205.748 -0.000888
208.408 0.000016
211.072 -0.001193
213.738 0.000039
216.406 -0.000459
219.077 -0.000477
221.75 -0.000793
224.426 -0.000031
227.105 -0.000154
229.786 -0.000379
232.469 0.000029
235.155 -0.001921
237.843 -0.000203
240.534 0.001783
243.227 -0.000139
245.923 -0.000576
248.621 -0.000498
251.321 0.000307
254.024 0.000514
256.73 0.000072
259.438 -0.000474
262.148 0.000628
264.86 -0.000164
267.575 0.000328
270.293 0.000620
273.013 0.000462
275.735 0.000556
278.46 -0.000059
281.187 0.001036
283.917 -0.000263
286.648 -0.000196
289.383 0.000283
292.119 -0.001229
294.858 -0.000659
297.599 0.000568
300.343 -0.001336
303.089 0.000322
305.838 -0.001110
308.588 -0.001331
311.341 -0.000466
314.097 -0.000516
316.854 0.000371
319.614 -0.000365
322.377 -0.001317
325.141 -0.000803
327.908 -0.000382
330.677 -0.002891
333.449 -0.002150
336.223 -0.002420
338.999 -0.002340
341.777 -0.003947
344.558 -0.005054
347.341 -0.005008
350.126 -0.003946
352.913 -0.003819
355.703 -0.004677
358.495 -0.004822
361.289 -0.005124
364.085 -0.004462
366.884 -0.003573
369.685 -0.006125
372.488 -0.005836
375.293 -0.003301
378.1 -0.003786
380.91 -0.005807
383.722 -0.004721
386.536 -0.003609
389.352 -0.003239
392.171 -0.003169
394.991 -0.000397
397.814 -0.001691
400.639 -0.002903
403.466 -0.000494
406.295 -0.000701
409.127 -0.000080
411.961 0.000149
414.796 0.000438
417.634 0.000416
420.474 -0.000486
423.316 -0.001154
426.161 0.000111
429.007 -0.001035
431.855 0.000052
434.706 0.001614
437.559 0.000502
440.413 -0.001297
443.27 0.001907
446.129 -0.000170
448.99 -0.000312
451.853 -0.000350
454.719 0.000653
457.586 -0.000315
460.455 -0.001569
463.327 -0.000343
466.2 -0.000518
469.076 -0.000727
471.953 0.000734
474.833 -0.000233
477.714 0.001396
480.598 -0.001692
483.484 -0.003045
486.372 -0.002479
489.261 -0.000571
492.153 0.000585
495.047 -0.000427
497.942 0.000128
500.84 -0.000691
503.74 -0.000733
506.641 0.000550
509.545 -0.000474
512.451 0.001533
515.358 0.000341
518.268 -0.000459
521.179 0.000252
524.093 0.000167
527.008 -0.000242
529.925 -0.000253
532.845 0.000362
535.766 -0.000229
538.689 0.001970
541.614 0.001024
544.541 -0.001384
547.47 -0.000733
550.401 0.001684
553.333 -0.000241
556.268 -0.001312
559.204 0.000722
562.143 0.001286
565.083 -0.000559
568.025 0.000021
570.969 0.000519
573.915 -0.003574
576.863 -0.003421
579.812 -0.004850
582.764 0.000496
585.717 -0.002781
588.672 0.000593
591.629 -0.003763
594.587 0.001654
597.548 -0.005865
600.51 -0.001474
603.475 -0.001139
606.441 0.001946
609.409 -0.002625
612.378 -0.003105
615.35 -0.005874
618.323 -0.000260
621.298 -0.000563
624.274 -0.001363
627.253 0.000361
630.233 -0.001568
633.215 -0.001273
636.199 -0.000253
639.185 -0.000381
642.172 -0.000545
645.161 0.000589
648.152 0.000147
651.144 -0.000702
654.139 -0.002123
657.135 -0.046669
660.133 -0.000355
663.132 -0.000412
666.133 0.000282
669.136 -0.000852
672.14 -0.001434
675.147 -0.000264
678.154 0.000816
681.164 -0.000640
684.175 0.000553
687.188 -0.001505
690.203 -0.000298
693.219 -0.000550
696.237 -0.001663
699.257 -0.000684
702.278 -0.000384
705.301 -0.001133
708.325 -0.001190
711.351 0.001677
714.379 0.001714
717.409 -0.000830
720.439 -0.001228
723.472 0.000126
726.506 -0.000900
729.542 -0.000441
732.58 -0.001488
735.619 -0.001188
738.659 -0.000726
741.701 -0.000442
744.745 -0.000541
747.79 -0.001195
750.837 0.000790
753.886 -0.002019
756.936 -0.000888
759.987 -0.001656
763.04 -0.000520
766.095 -0.001216
769.151 -0.000935
772.209 0.000214
775.268 0.001206
778.329 0.000794
781.391 -0.001257
784.455 -0.000179
787.52 0.000056
790.587 -0.000689
793.655 -0.001000
796.725 -0.001592
799.796 -0.001475
802.869 0.001190
805.943 -0.000793
809.019 -0.001288
812.096 0.000370
815.174 -0.000579
818.254 -0.000425
821.336 -0.002369
824.419 0.000278
827.503 -0.001096
830.589 -0.000502
833.676 -0.002247
836.765 -0.000630
839.855 0.000094
842.946 0.000463
846.039 -0.000662
849.133 -0.000582
852.229 -0.000022
855.326 -0.002169
858.424 0.000175
861.524 -0.002205
864.625 -0.001449
867.728 0.000691
870.832 0.000309
873.937 -0.001295
877.044 -0.000166
880.152 -0.000476
883.261 -0.000419
886.372 -0.000089
889.484 0.001067
892.598 -0.000898
895.712 -0.001144
898.828 -0.000735
901.946 -0.000160
905.064 0.000056
908.184 0.000217
911.306 -0.000765
914.428 0.000304
917.552 -0.000041
920.677 0.000667
923.804 -0.000688
926.931 0.000427
930.06 0.000328
933.191 -0.000963
936.322 0.000818
939.455 -0.000628
942.589 -0.000804
945.724 -0.001401
948.861 -0.000596
951.998 0.000578
955.137 0.000540
958.278 0.000441
961.419 -0.000189
964.562 -0.000671
967.705 -0.000659
970.85 0.000993
973.997 -0.000241
977.144 0.000285
980.293 -0.000470
983.442 0.000465
986.593 -0.000667
989.746 0.000691
992.899 -0.000495
996.053 0.000412
999.209 0.000609
1002.37 0.000525
1005.52 -0.000899
1008.68 -0.000097
1011.84 -0.001018
1015 0.000138
1018.17 -0.001345
1021.33 0.000807
1023.03 -0.000009