Folder: Auto_Polymerization/Auto_Polymerization/Data/UV_VIS_Spectra/MRG-061-F-2_spectra_while_stopped (part 3)

File: spectrum_2025-06-19_12-19-45.txt
# Wavelength (nm)	Intensity (a.u.)
197.7802	0.000164
200.4334	0.001493
203.0892	0.000628
205.7475	-0.001757
208.4084	-0.000301
211.0718	0.001219
213.7376	0.001683
216.4060	0.001367
219.0769	0.001050
221.7503	0.001472
224.4262	0.001873
227.1046	0.001282
229.7855	0.000607
232.4688	0.000628
235.1546	0.001979
237.8429	0.000839
240.5337	0.001029
243.2269	0.001303
245.9225	0.001345
248.6206	0.001535
251.3212	0.001514
254.0242	0.000354
256.7296	0.000079
259.4375	0.001177
262.1477	0.000839
264.8604	0.000058
267.5755	0.001071
270.2931	-0.000153
273.0130	0.002760
275.7353	0.001134
278.4600	0.001198
281.1871	0.000755
283.9166	0.001409
286.6484	0.000966
289.3827	0.000417
292.1193	0.000522
294.8582	0.001662
297.5995	-0.000301
300.3432	-0.000871
303.0892	0.000586
305.8376	0.001704
308.5883	0.001029
311.3413	-0.000005
314.0967	0.000501
316.8543	0.000860
319.6143	0.002274
322.3766	0.000881
325.1412	0.000206
327.9082	0.000121
330.6774	0.001261
333.4489	0.001050
336.2227	0.001282
338.9987	0.002443
341.7771	0.001409
344.5577	0.001134
347.3406	-0.000153
350.1257	-0.000491
352.9131	-0.000828
355.7027	0.000860
358.4946	0.000354
361.2888	0.001303
364.0851	0.000396
366.8837	0.000586
369.6845	0.000206
372.4876	0.002485
375.2928	0.002126
378.1003	0.001409
380.9100	-0.000026
383.7219	0.000269
386.5359	-0.000237
389.3522	0.001261
392.1706	0.001873
394.9912	0.002443
397.8140	0.004026
400.6390	0.004955
403.4661	0.006200
406.2954	0.008458
409.1269	0.009556
411.9605	0.010885
414.7962	0.012004
417.6341	0.012954
420.4741	0.015022
423.3162	0.017090
426.1605	0.016774
429.0068	0.019496
431.8553	0.019792
434.7059	0.020298
437.5586	0.021438
440.4135	0.020151
443.2703	0.026947
446.1293	0.023549
448.9904	0.022240
451.8535	0.021100
454.7188	0.017238
457.5860	0.018357
460.4554	0.018019
463.3268	0.014726
466.2003	0.015697
469.0758	0.011603
471.9533	0.007740
474.8329	0.007551
477.7145	0.008141
480.5982	0.006664
483.4838	0.007128
486.3715	0.017639
489.2612	0.003963
492.1529	0.005208
495.0466	0.003562
497.9423	0.005313
500.8400	0.004469
503.7397	0.005778
506.6414	0.003224
509.5450	0.003224
512.4506	0.002337
515.3582	0.004891
518.2677	0.004638
521.1792	0.002380
524.0927	0.003266
527.0081	0.004026
529.9254	0.005947
532.8447	0.006411
535.7659	0.008078
538.6890	0.009513
541.6140	0.012679
544.5410	0.014135
547.4699	0.014853
550.4007	0.017808
553.3333	0.022557
556.2679	0.027369
559.2044	0.025068
562.1427	0.032054
565.0829	0.038006
568.0250	0.052611
570.9690	0.108393
573.9149	0.148409
576.8626	0.171541
579.8121	0.195475
582.7635	0.254149
585.7167	0.228948
588.6718	0.194166
591.6288	0.129879
594.5875	0.168122
597.5481	0.150794
600.5105	0.181777
603.4747	0.184458
606.4407	0.162445
609.4085	0.128845
612.3781	0.124856
615.3495	0.123800
618.3227	0.109638
621.2977	0.073083
624.2745	0.087794
627.2530	0.068060
630.2333	0.061961
633.2154	0.045899
636.1992	0.043050
639.1848	0.042333
642.1721	0.033381
645.1612	0.025919
648.1520	0.030226
651.1445	0.028018
654.1388	0.033537
657.1348	0.862694
660.1325	0.060919
663.1319	0.020958
666.1330	0.024160
669.1359	0.021522
672.1404	0.031189
675.1466	0.027115
678.1545	0.029289
681.1641	0.034650
684.1754	0.033131
687.1883	0.045435
690.2029	0.035030
693.2192	0.038365
696.2371	0.030556
699.2567	0.035959
702.2779	0.027284
705.3008	0.024899
708.3253	0.038344
711.3514	0.031505
714.3791	0.033152
717.4085	0.029078
720.4395	0.028635
723.4721	0.027896
726.5063	0.036845
729.5421	0.037352
732.5795	0.041763
735.6185	0.048284
738.6591	0.039863
741.7013	0.033152
744.7450	0.028783
747.7903	0.030535
750.8372	0.039547
753.8856	0.043768
756.9356	0.051767
759.9872	0.061475
763.0403	0.047356
766.0949	0.050205
769.1510	0.048939
772.2087	0.042734
775.2679	0.030091
778.3287	0.027031
781.3909	0.034460
784.4547	0.032054
787.5199	0.029880
790.5867	0.025744
793.6550	0.022915
796.7247	0.023021
799.7959	0.022261
802.8686	0.015845
805.9428	0.019138
809.0185	0.023591
812.0956	0.016436
815.1742	0.016647
818.2542	0.014325
821.3357	0.014283
824.4186	0.011328
827.5029	0.013502
830.5887	0.009935
833.6759	0.010548
836.7646	0.007698
839.8546	0.007213
842.9461	0.005334
846.0390	0.005060
849.1333	0.003604
852.2289	0.007318
855.3260	0.011708
858.4245	0.010949
861.5243	0.006749
864.6255	0.006559
867.7281	0.004659
870.8321	0.005862
873.9374	0.005968
877.0441	0.006200
880.1521	0.008458
883.2615	0.006601
886.3722	0.007445
889.4843	0.004743
892.5977	0.004955
895.7124	0.005039
898.8284	0.003941
901.9458	0.004321
905.0644	0.004976
908.1844	0.004997
911.3057	0.006242
914.4283	0.003414
917.5521	0.002696
920.6773	0.003963
923.8037	0.002147
926.9314	0.001852
930.0604	0.002696
933.1906	0.002211
936.3221	0.001979
939.4549	0.004216
942.5889	0.000480
945.7241	0.001472
948.8606	0.000944
951.9983	0.002380
955.1373	0.002000
958.2775	0.000755
961.4189	0.001535
964.5615	0.000396
967.7053	0.000100
970.8504	-0.000026
973.9966	0.000543
977.1440	0.001451
980.2926	0.002274
983.4424	0.000797
986.5934	0.000311
989.7456	0.002253
992.8989	-0.000744
996.0534	0.001451
999.2090	-0.000026
1002.37	0.000628
1005.52	0.001620
1008.68	-0.000533
1011.84	0.000396
1015	0.000227
1018.17	0.000797
1021.33	-0.000913
1023.03	0.001852

File: spectrum_2025-06-19_12-40-13_absorbance.txt
# Wavelength	Absorbance
197.78 2.878522
200.433 0.633852
203.089 0.849937
205.748 2.682145
208.408 -0.230039
211.072 3.104487
213.738 -0.022748
216.406 2.902003
219.077 0.094916
221.75 0.770255
224.426 -0.113816
227.105 0.340224
229.786 2.791691
232.469 -1.030408
235.155 1.991226
237.843 1.851258
240.534 -2.447158
243.227 0.262959
245.923 0.578966
248.621 0.888692
251.321 -0.280637
254.024 -0.135435
256.73 0.045712
259.438 2.975891
262.148 0.317797
264.86 0.215600
267.575 0.291485
270.293 -2.819544
273.013 2.799341
275.735 -2.833147
278.46 0.890184
281.187 -1.838849
283.917 2.866287
286.648 2.940516
289.383 3.074816
292.119 3.059185
294.858 3.074816
297.599 -0.937313
300.343 0.025674
303.089 2.357935
305.838 0.510042
308.588 3.242293
311.341 0.476902
314.097 0.121317
316.854 0.274228
319.614 0.219303
322.377 0.417871
325.141 1.338851
327.908 0.313326
330.677 0.716929
333.449 0.477987
336.223 1.711995
338.999 3.739731
341.777 3.818094
344.558 0.747895
347.341 3.899164
350.126 0.876344
352.913 3.896857
355.703 3.292478
358.495 3.959995
361.289 1.667394
364.085 4.019947
366.884 2.648660
369.685 4.136974
372.488 1.890149
375.293 1.647035
378.1 1.003334
380.91 1.176190
383.722 2.305119
386.536 4.371972
389.352 1.987083
392.171 1.792782
394.991 1.179646
397.814 1.027664
400.639 0.849712
403.466 0.706334
406.295 0.671978
409.127 0.639668
411.961 0.557802
414.796 0.517082
417.634 0.425137
420.474 0.411675
423.316 0.446661
426.161 0.386228
429.007 0.338144
431.855 0.314378
434.706 0.340869
437.559 0.333852
440.413 0.344378
443.27 0.333075
446.129 0.353400
448.99 0.377311
451.853 0.393233
454.719 0.406075
457.586 0.446403
460.455 0.506992
463.327 0.532239
466.2 0.653111
469.076 0.578320
471.953 0.651943
474.833 0.747695
477.714 0.757743
480.598 0.873061
483.484 0.922277
486.372 1.010401
489.261 1.042077
492.153 1.042735
495.047 1.118124
497.942 1.064332
500.84 1.169553
503.74 1.159171
506.641 1.327243
509.545 1.050499
512.451 1.084099
515.358 1.125028
518.268 1.257957
521.179 0.982452
524.093 0.985228
527.008 0.927659
529.925 0.818474
532.845 0.947085
535.766 0.769534
538.689 0.744477
541.614 0.645365
544.541 0.573397
547.47 0.499230
550.401 0.419217
553.333 0.396457
556.268 0.349275
559.204 0.279287
562.143 0.233505
565.083 0.227802
568.025 0.172771
570.969 0.171822
573.915 0.148086
576.863 0.120426
579.812 0.093300
582.764 0.083524
585.717 0.080582
588.672 0.061102
591.629 0.064389
594.587 0.051604
597.548 0.045628
600.51 0.041012
603.475 0.039958
606.441 0.016157
609.409 0.039036
612.378 0.032095
615.35 0.033533
618.323 0.033186
621.298 0.021468
624.274 0.022013
627.253 0.009556
630.233 0.027282
633.215 0.025755
636.199 -0.005968
639.185 0.008042
642.172 0.003464
645.161 -0.014869
648.152 0.034193
651.144 -0.013491
654.139 0.017840
657.135 0.026042
660.133 -0.045402
663.132 0.047110
666.133 0.030529
669.136 0.042012
672.14 0.016579
675.147 0.002940
678.154 -0.005274
681.164 -0.014895
684.175 0.042610
687.188 -0.003239
690.203 -0.022363
693.219 0.008417
696.237 0.021412
699.257 0.005209
702.278 0.021184
705.301 -0.003992
708.325 0.021435
711.351 -0.040942
714.379 -0.030373
717.409 -0.008032
720.439 -0.015492
723.472 0.022227
726.506 0.002158
729.542 -0.003983
732.58 0.040915
735.619 -0.015450
738.659 -0.001726
741.701 0.006588
744.745 0.011301
747.79 0.019717
750.837 -0.018432
753.886 0.012598
756.936 0.012513
759.987 0.009455
763.04 -0.002611
766.095 0.000727
769.151 0.024023
772.209 0.007065
775.268 -0.019163
778.329 0.001888
781.391 0.024034
784.455 0.023214
787.52 0.017523
790.587 -0.006493
793.655 0.041389
796.725 0.009575
799.796 0.001613
802.869 0.026101
805.943 0.017584
809.019 0.052827
812.096 -0.060121
815.174 -0.010576
818.254 0.068187
821.336 0.108905
824.419 0.008914
827.503 0.091553
830.589 0.029734
833.676 0.079082
836.765 0.089945
839.855 0.010269
842.946 0.007859
846.039 0.149095
849.133 0.037860
852.229 -0.087933
855.326 0.066142
858.424 -0.069764
861.524 0.063309
864.625 0.048326
867.728 -0.024526
870.832 0.153385
873.937 0.036560
877.044 -0.151483
880.152 -0.070574
883.261 -0.073937
886.372 -0.025220
889.484 0.141588
892.598 0.086207
895.712 0.054003
898.828 -0.012768
901.946 -0.140804
905.064 0.160594
908.184 -0.066015
911.306 -0.052512
914.428 -0.011133
917.552 -0.075524
920.677 -0.170739
923.804 -0.029977
926.931 0.201510
930.06 -0.203694
933.191 -0.089837
936.322 0.293150
939.455 0.021771
942.589 -0.102023
945.724 0.474207
948.861 3.265290
951.998 -0.039637
955.137 0.113379
958.278 -0.494462
961.419 -0.444045
964.562 0.235820
967.705 0.566828
970.85 -0.279332
973.997 0.204472
977.144 0.067086
980.293 0.149462
983.442 0.049559
986.593 0.129120
989.746 2.123852
992.899 0.091041
996.053 -0.245311
999.209 -3.097257
1002.37 0.645641
1005.52 0.058073
1008.68 2.691965
1011.84 -0.170419
1015 -3.042576
1018.17 3.231724
1021.33 -2.334454
1023.03 -0.127105

File: spectrum_2025-06-19_12-45-20_absorbance.txt
# Wavelength	Absorbance
197.78 2.878522
200.433 3.008600
203.089 0.118175
205.748 0.449149
208.408 -0.035654
211.072 3.104487
213.738 0.657047
216.406 2.902003
219.077 1.177425
221.75 3.183555
224.426 2.719331
227.105 -0.550011
229.786 2.791691
232.469 1.959041
235.155 3.406199
237.843 1.851258
240.534 -2.741152
243.227 1.348390
245.923 0.377765
248.621 2.727541
251.321 2.736397
254.024 2.872739
256.73 0.056766
259.438 1.162978
262.148 0.248743
264.86 2.662758
267.575 0.058189
270.293 -2.668386
273.013 0.566344
275.735 0.000000
278.46 2.935507
281.187 0.000000
283.917 2.866287
286.648 2.940516
289.383 0.115775
292.119 0.730805
294.858 0.791515
297.599 -0.833949
300.343 3.270446
303.089 -0.547321
305.838 3.201124
308.588 3.242293
311.341 1.361947
314.097 2.599883
316.854 0.387054
319.614 2.943989
322.377 3.460447
325.141 3.384174
327.908 0.520282
330.677 0.928766
333.449 1.073171
336.223 3.666237
338.999 0.801211
341.777 0.820707
344.558 0.735459
347.341 0.802949
350.126 1.040753
352.913 1.139461
355.703 0.637147
358.495 1.553455
361.289 4.042142
364.085 1.041310
366.884 4.063634
369.685 4.136974
372.488 4.180183
375.293 4.182329
378.1 4.253265
380.91 4.341138
383.722 4.350442
386.536 4.371972
389.352 1.896592
392.171 1.839723
394.991 1.500062
397.814 1.284271
400.639 0.785417
403.466 0.822932
406.295 0.678040
409.127 0.654957
411.961 0.571558
414.796 0.502693
417.634 0.429310
420.474 0.458717
423.316 0.384203
426.161 0.349590
429.007 0.383575
431.855 0.340519
434.706 0.356623
437.559 0.319299
440.413 0.346519
443.27 0.354529
446.129 0.396353
448.99 0.381830
451.853 0.402904
454.719 0.449346
457.586 0.467682
460.455 0.473475
463.327 0.599424
466.2 0.522208
469.076 0.646764
471.953 0.729672
474.833 0.739942
477.714 0.840471
480.598 0.901779
483.484 1.034095
486.372 0.955807
489.261 1.038413
492.153 1.118035
495.047 1.176227
497.942 1.134273
500.84 1.252681
503.74 1.353433
506.641 1.235925
509.545 1.341131
512.451 1.126996
515.358 1.152290
518.268 0.984487
521.179 1.254571
524.093 1.139007
527.008 1.095635
529.925 1.031905
532.845 0.866671
535.766 0.808123
538.689 0.724021
541.614 0.629757
544.541 0.568044
547.47 0.553208
550.401 0.468385
553.333 0.439216
556.268 0.361980
559.204 0.302974
562.143 0.233649
565.083 0.251130
568.025 0.181556
570.969 0.193602
573.915 0.150323
576.863 0.146122
579.812 0.119992
582.764 0.042742
585.717 0.072684
588.672 0.051998
591.629 0.069408
594.587 0.050194
597.548 0.051043
600.51 0.038827
603.475 0.058183
606.441 -0.000938
609.409 0.015915
612.378 0.008591
615.35 0.032483
618.323 0.008774
621.298 -0.018886
624.274 0.038128
627.253 0.024328
630.233 0.016310
633.215 0.009894
636.199 0.000710
639.185 -0.028490
642.172 0.015934
645.161 0.014352
648.152 0.017145
651.144 0.004611
654.139 0.035741
657.135 -0.041399
660.133 -0.241507
663.132 0.042527
666.133 -0.000196
669.136 0.047766
672.14 0.053796
675.147 0.001122
678.154 0.007214
681.164 0.012264
684.175 0.044827
687.188 0.030768
690.203 0.008984
693.219 0.025468
696.237 -0.013747
699.257 -0.000804
702.278 0.007658
705.301 0.015625
708.325 0.013161
711.351 -0.015171
714.379 0.013706
717.409 0.004174
720.439 -0.008477
723.472 -0.006252
726.506 0.020793
729.542 0.030441
732.58 0.019793
735.619 0.018790
738.659 -0.004548
741.701 -0.004218
744.745 0.017567
747.79 0.008593
750.837 -0.015417
753.886 0.046129
756.936 0.002415
759.987 0.006247
763.04 -0.016110
766.095 -0.011511
769.151 0.008156
772.209 0.000010
775.268 -0.002435
778.329 0.016761
781.391 0.076166
784.455 0.000322
787.52 0.022949
790.587 0.035455
793.655 0.029350
796.725 0.013055
799.796 -0.016032
802.869 -0.010283
805.943 0.026815
809.019 0.036984
812.096 -0.035267
815.174 -0.031617
818.254 0.035508
821.336 0.043132
824.419 -0.038887
827.503 0.029504
830.589 -0.028375
833.676 0.119564
836.765 -0.025540
839.855 -0.033434
842.946 -0.069357
846.039 0.062690
849.133 0.085792
852.229 0.116114
855.326 0.032623
858.424 -0.015634
861.524 0.079429
864.625 0.117242
867.728 0.155801
870.832 0.133677
873.937 0.110513
877.044 0.069442
880.152 0.111968
883.261 0.113771
886.372 0.042577
889.484 0.030610
892.598 0.151690
895.712 0.085065
898.828 0.171073
901.946 -0.020969
905.064 0.143782
908.184 0.072109
911.306 0.048427
914.428 0.095068
917.552 0.034840
920.677 -0.111811
923.804 0.149306
926.931 0.096167
930.06 3.336260
933.191 0.068646
936.322 3.152288
939.455 0.344007
942.589 0.052550
945.724 0.590948
948.861 0.524138
951.998 0.328565
955.137 0.191746
958.278 0.892224
961.419 -0.216606
964.562 0.082591
967.705 0.270333
970.85 -0.238784
973.997 0.270481
977.144 3.192567
980.293 3.008600
983.442 0.676162
986.593 0.712991
989.746 0.762124
992.899 0.393531
996.053 2.866287
999.209 -2.668386
1002.37 0.017820
1005.52 2.882525
1008.68 -0.286672
1011.84 0.502940
1015 -3.325105
1018.17 0.361906
1021.33 -2.968950
1023.03 2.812913

File: spectrum_2025-06-19_13-00-40.txt
# Wavelength (nm)	Intensity (a.u.)
197.7802	0.000410
200.4334	0.000473
203.0892	0.000347
205.7475	0.000283
208.4084	0.000727
211.0718	-0.001427
213.7376	0.001233
216.4060	0.000537
219.0769	0.000537
221.7503	-0.001089
224.4262	0.002184
227.1046	0.000537
229.7855	0.000537
232.4688	0.000874
235.1546	-0.001279
237.8429	-0.000772
240.5337	0.000959
243.2269	-0.001152
245.9225	0.000811
248.6206	0.000706
251.3212	-0.000266
254.0242	0.000473
256.7296	0.000642
259.4375	-0.000709
262.1477	-0.000160
264.8604	0.000874
267.5755	0.000304
270.2931	-0.000646
273.0130	-0.000245
275.7353	-0.000498
278.4600	0.000874
281.1871	0.000874
283.9166	-0.000097
286.6484	-0.000730
289.3827	0.001318
292.1193	-0.000266
294.8582	0.000642
297.5995	0.000874
300.3432	-0.000097
303.0892	-0.000836
305.8376	0.000262
308.5883	0.000600
311.3413	-0.000392
314.0967	0.002289
316.8543	0.000389
319.6143	0.001930
322.3766	-0.000012
325.1412	0.000452
327.9082	0.000494
330.6774	0.000558
333.4489	0.001191
336.2227	0.000537
338.9987	0.001571
341.7771	0.001064
344.5577	0.000030
347.3406	-0.001152
350.1257	0.001022
352.9131	0.000304
355.7027	0.000980
358.4946	-0.000371
361.2888	0.001740
364.0851	0.001043
366.8837	0.000220
369.6845	0.000896
372.4876	0.001782
375.2928	0.000811
378.1003	-0.000582
380.9100	-0.000561
383.7219	0.002352
386.5359	-0.000498
389.3522	0.001466
392.1706	0.000663
394.9912	0.002796
397.8140	0.003809
400.6390	0.003704
403.4661	0.003598
406.2954	0.005646
409.1269	0.008011
411.9605	0.009489
414.7962	0.010671
417.6341	0.012023
420.4741	0.014957
423.3162	0.016583
426.1605	0.016689
429.0068	0.016098
431.8553	0.018652
434.7059	0.019645
437.5586	0.021144
440.4135	0.021249
443.2703	0.024775
446.1293	0.023276
448.9904	0.021439
451.8535	0.019518
454.7188	0.016963
457.5860	0.016288
460.4554	0.018568
463.3268	0.014493
466.2003	0.014641
469.0758	0.010650
471.9533	0.008475
474.8329	0.008307
477.7145	0.006723
480.5982	0.008307
483.4838	0.005203
486.3715	0.016562
489.2612	0.004971
492.1529	0.004147
495.0466	0.002184
497.9423	0.003556
500.8400	0.002416
503.7397	0.003345
506.6414	0.004654
509.5450	0.003281
512.4506	0.002923
515.3582	0.003873
518.2677	0.002901
521.1792	0.003915
524.0927	0.004654
527.0081	0.004443
529.9254	0.005731
532.8447	0.005182
535.7659	0.009447
538.6890	0.009214
541.6140	0.011727
544.5410	0.015211
547.4699	0.017259
550.4007	0.017111
553.3333	0.020426
556.2679	0.024015
559.2044	0.022769
562.1427	0.033136
565.0829	0.038288
568.0250	0.052772
570.9690	0.104226
573.9149	0.145715
576.8626	0.171474
579.8121	0.194361
582.7635	0.251242
585.7167	0.230973
588.6718	0.189484
591.6288	0.125488
594.5875	0.158024
597.5481	0.145483
600.5105	0.175739
603.4747	0.185831
606.4407	0.159713
609.4085	0.132603
612.3781	0.127705
615.3495	0.123757
618.3227	0.106528
621.2977	0.075005
624.2745	0.085034
627.2530	0.068671
630.2333	0.060521
633.2154	0.044200
636.1992	0.042553
639.1848	0.039048
642.1721	0.031556
645.1612	0.028613
648.1520	0.027968
651.1445	0.028214
654.1388	0.032029
657.1348	0.860107
660.1325	0.059703
663.1319	0.021380
666.1330	0.022966
669.1359	0.020257
672.1404	0.032250
675.1466	0.027056
678.1545	0.029061
681.1641	0.034382
684.1754	0.035015
687.1883	0.044284
690.2029	0.035902
693.2192	0.037528
696.2371	0.027731
699.2567	0.033601
702.2779	0.028787
705.3008	0.024290
708.3253	0.036831
711.3514	0.032630
714.3791	0.036726
717.4085	0.027710
720.4395	0.028386
723.4721	0.028766
726.5063	0.033031
729.5421	0.035818
732.5795	0.042490
735.6185	0.049141
738.6591	0.040062
741.7013	0.034298
744.7450	0.028238
747.7903	0.031363
750.8372	0.038541
753.8856	0.043165
756.9356	0.052392
759.9872	0.060690
763.0403	0.049373
766.0949	0.046987
769.1510	0.047663
772.2087	0.040611
775.2679	0.030708
778.3287	0.026401
781.3909	0.036409
784.4547	0.031743
787.5199	0.029315
790.5867	0.026908
793.6550	0.025092
796.7247	0.021798
799.7959	0.020890
802.8686	0.016478
805.9428	0.020658
809.0185	0.023340
812.0956	0.018019
815.1742	0.016161
818.2542	0.014007
821.3357	0.016288
824.4186	0.011579
827.5029	0.014746
830.5887	0.009088
833.6759	0.008391
836.7646	0.007779
839.8546	0.008792
842.9461	0.005287
846.0390	0.005900
849.1333	0.005034
852.2289	0.007230
855.3260	0.013015
858.4245	0.010946
861.5243	0.005393
864.6255	0.007061
867.7281	0.007272
870.8321	0.005393
873.9374	0.003978
877.0441	0.004675
880.1521	0.009130
883.2615	0.005815
886.3722	0.006005
889.4843	0.005667
892.5977	0.004886
895.7124	0.004464
898.8284	0.006364
901.9458	0.003936
905.0644	0.005224
908.1844	0.003113
911.3057	0.003704
914.4283	0.002965
917.5521	0.005161
920.6773	0.003493
923.8037	0.002775
926.9314	0.001825
930.0604	0.003091
933.1906	0.002564
936.3221	0.001191
939.4549	0.002374
942.5889	-0.000055
945.7241	0.000790
948.8606	0.002268
951.9983	0.001867
955.1373	0.002500
958.2775	0.001001
961.4189	0.000410
964.5615	0.001276
967.7053	-0.000308
970.8504	0.001276
973.9966	0.000537
977.1440	0.001487
980.2926	0.000853
983.4424	0.002120
986.5934	0.000579
989.7456	0.000093
992.8989	0.001339
996.0534	0.000959
999.2090	0.000769
1002.37	0.001276
1005.52	0.001402
1008.68	0.001993
1011.84	0.002184
1015	-0.000667
1018.17	0.001255
1021.33	-0.000625
1023.03	-0.000308