Folder: Auto_Polymerization/Auto_Polymerization/Data/UV_VIS_Spectra/MRG-061-F-2_spectra_while_flow

Note: README.md
# Auto_Polymerization

[![Python 3.10](https://img.shields.io/badge/python-3.10-blue.svg)](https://www.python.org/downloads/)
[![License: MIT](https://img.shields.io/badge/License-MIT-yellow.svg)](https://opensource.org/licenses/MIT)

This repository contains the **Auto_Polymerization platform** for automated polymer synthesis and characterization.

## ğŸš€ Quick Start

### Device Testing

For testing real devices in your Auto_Polymerization platform, see the demo folder:

```bash
cd Auto_Polymerization/demo
python demo_device_test.py
```

This will guide you through testing individual devices with safe parameters.

For comprehensive device testing:

```bash
cd Auto_Polymerization/demo
python device_test_controller.py
```

ğŸ“– See [`Auto_Polymerization/demo/DEVICE_TESTING_README.md`](Auto_Polymerization/demo/DEVICE_TESTING_README.md) for detailed documentation.

## ğŸ“¦ Required Packages and Setup

### ğŸ”§ Hardware Drivers

Install drivers for the devices used in this project:

- **[Thorlabs CCS200 Spectrometer](https://www.thorlabs.com/thorproduct.cfm?partnumber=CCS200#ad-image-0)** - UV-VIS spectroscopy
- **[Thorlabs upLED Controller](https://www.thorlabs.com/thorproduct.cfm?partnumber=UPLED)** - LED control

### ğŸ Python Environment

**Python Version:** 3.10

Install the linear actuator and valves control package from the local source in editable mode:

```bash
pip install -e src/linear_actuator_and_valves/
```

### ğŸ“š Core Dependencies

```bash
pip install scipy numpy pandas matplotlib pyserial nmrglue requests pyyaml medusa-sdl
```

### ğŸ”¬ MatterLab Packages

Install from [MatterLab devices repository](https://gitlab.com/aspuru-guzik-group/self-driving-lab/devices):

#### Easy Installation (if available):
```bash
pip install matterlab_hotplates
pip install matterlab_pumps
pip install matterlab_serial_device
```

#### Manual Installation:

**Hotplates, Pumps, Serial Device:**

https://gitlab.com/aspuru-guzik-group/self-driving-lab/devices



**Spectrometers:**

- **NMR (Nanalysis Benchtop):**

  git clone https://gitlab.com/aspuru-guzik-group/self-driving-lab/devices/nmr
  cd nmr
  git checkout develop
  pip install -e .


- **UV-VIS (Thorlabs CCS200):**

  git clone https://gitlab.com/aspuru-guzik-group/self-driving-lab/devices/spectrometer
  cd spectrometer
  git checkout develop
  pip install -e .


> **Note:** If access is not public, contact Han Hao at University of Toronto.

### âš™ï¸ Configuration

**CSS200 Spectrometer DLL:**
Potentially you need to update the `DLL_FILE` value in `ccs_spectrometer.py` in the matterlab package:
The correct file path is typically: 
DLL_FILE = Path(r"C:\Program Files\IVI Foundation\VISA\Win64\Bin\TLCCS_64.dll")
#

**Arduino Setup:**
1. Install Arduino IDE on your PC
2. Upload the Arduino code from `users/setup/` to your Arduino board
3. An overview of the hardware connections of the GPIO pins is given in "Arduino_contacts_overview_2025_06_27_bb.jpg"
## âš ï¸ Important Notes



## ğŸ“ Project Struc

File: spectrum_2025-06-19_10-01-17.txt
# Wavelength (nm)	Intensity (a.u.)
197.7802	-0.000317
200.4334	0.000401
203.0892	0.002110
205.7475	0.001245
208.4084	0.000106
211.0718	0.000823
213.7376	0.000549
216.4060	0.000232
219.0769	0.001815
221.7503	-0.000633
224.4262	0.001772
227.1046	-0.000654
229.7855	-0.000317
232.4688	0.001329
235.1546	-0.000127
237.8429	0.000950
240.5337	0.001076
243.2269	0.000633
245.9225	-0.000148
248.6206	0.000844
251.3212	0.000317
254.0242	-0.000317
256.7296	-0.000633
259.4375	0.000485
262.1477	0.001076
264.8604	0.000506
267.5755	0.000338
270.2931	-0.000717
273.0130	0.000781
275.7353	0.000295
278.4600	0.001224
281.1871	-0.000021
283.9166	0.002258
286.6484	0.000063
289.3827	0.000781
292.1193	-0.000696
294.8582	0.000169
297.5995	0.000148
300.3432	0.001224
303.0892	0.000802
305.8376	0.001583
308.5883	0.000633
311.3413	0.000717
314.0967	0.000591
316.8543	0.000570
319.6143	0.001772
322.3766	0.000148
325.1412	0.000633
327.9082	0.001139
330.6774	0.000464
333.4489	0.000865
336.2227	0.001266
338.9987	0.000823
341.7771	0.000274
344.5577	0.000717
347.3406	0.000717
350.1257	0.000886
352.9131	0.000443
355.7027	0.001329
358.4946	0.000570
361.2888	0.000865
364.0851	0.001878
366.8837	0.000169
369.6845	-0.000760
372.4876	0.000654
375.2928	-0.000591
378.1003	0.001139
380.9100	0.001983
383.7219	0.001287
386.5359	0.000127
389.3522	0.003017
392.1706	0.006373
394.9912	0.009749
397.8140	0.016775
400.6390	0.020405
403.4661	0.021185
406.2954	0.026229
409.1269	0.026925
411.9605	0.028676
414.7962	0.028655
417.6341	0.031314
420.4741	0.031124
423.3162	0.036062
426.1605	0.029752
429.0068	0.032137
431.8553	0.031588
434.7059	0.031462
437.5586	0.031377
440.4135	0.030449
443.2703	0.034268
446.1293	0.030449
448.9904	0.027431
451.8535	0.024477
454.7188	0.022663
457.5860	0.020574
460.4554	0.020004
463.3268	0.017725
466.2003	0.017809
469.0758	0.014771
471.9533	0.009706
474.8329	0.010424
477.7145	0.008651
480.5982	0.007280
483.4838	0.007807
486.3715	0.019835
489.2612	0.004938
492.1529	0.005317
495.0466	0.002342
497.9423	0.004030
500.8400	0.002216
503.7397	0.003904
506.6414	0.003925
509.5450	0.004874
512.4506	0.001350
515.3582	0.004262
518.2677	0.003165
521.1792	0.002849
524.0927	0.003313
527.0081	0.003840
529.9254	0.004621
532.8447	0.005360
535.7659	0.008884
538.6890	0.010551
541.6140	0.012133
544.5410	0.014961
547.4699	0.018421
550.4007	0.018885
553.3333	0.023106
556.2679	0.028170
559.2044	0.027663
562.1427	0.034310
565.0829	0.041822
568.0250	0.056171
570.9690	0.111350
573.9149	0.156464
576.8626	0.183558
579.8121	0.211496
582.7635	0.265578
585.7167	0.241143
588.6718	0.201937
591.6288	0.135005
594.5875	0.171847
597.5481	0.152983
600.5105	0.184487
603.4747	0.191851
606.4407	0.165327
609.4085	0.137663
612.3781	0.133338
615.3495	0.129603
618.3227	0.109240
621.2977	0.075689
624.2745	0.089996
627.2530	0.071554
630.2333	0.059610
633.2154	0.047625
636.1992	0.044924
639.1848	0.041358
642.1721	0.032358
645.1612	0.027802
648.1520	0.029830
651.1445	0.031424
654.1388	0.034729
657.1348	0.875721
660.1325	0.059637
663.1319	0.024031
666.1330	0.023615
669.1359	0.022051
672.1404	0.033129
675.1466	0.026566
678.1545	0.031208
681.1641	0.035323
684.1754	0.033382
687.1883	0.045093
690.2029	0.037433
693.2192	0.039079
696.2371	0.030027
699.2567	0.036019
702.2779	0.029394
705.3008	0.025279
708.3253	0.036969
711.3514	0.032643
714.3791	0.035281
717.4085	0.029499
720.4395	0.027896
723.4721	0.028697
726.5063	0.035091
729.5421	0.038953
732.5795	0.041231
735.6185	0.050305
738.6591	0.041358
741.7013	0.034120
744.7450	0.031546
747.7903	0.033023
750.8372	0.040936
753.8856	0.044017
756.9356	0.051297
759.9872	0.060919
763.0403	0.047604
766.0949	0.053322
769.1510	0.047520
772.2087	0.042687
775.2679	0.030913
778.3287	0.026545
781.3909	0.036019
784.4547	0.032854
787.5199	0.030786
790.5867	0.027305
793.6550	0.024899
796.7247	0.023844
799.7959	0.021755
802.8686	0.016332
805.9428	0.022810
809.0185	0.023401
812.0956	0.017197
815.1742	0.018569
818.2542	0.015826
821.3357	0.015362
824.4186	0.012196
827.5029	0.012154
830.5887	0.011395
833.6759	0.009685
836.7646	0.010234
839.8546	0.008208
842.9461	0.006731
846.0390	0.005022
849.1333	0.006436
852.2289	0.006098
855.3260	0.013673
858.4245	0.010973
861.5243	0.005233
864.6255	0.006795
867.7281	0.007470
870.8321	0.006225
873.9374	0.004853
877.0441	0.004748
880.1521	0.008440
883.2615	0.006879
886.3722	0.006710
889.4843	0.003798
892.5977	0.006267
895.7124	0.005423
898.8284	0.004748
901.9458	0.003777
905.0644	0.004347
908.1844	0.005001
911.3057	0.003418
914.4283	0.003102
917.5521	0.005655
920.6773	0.003735
923.8037	0.003334
926.9314	0.001646
930.0604	0.002342
933.1906	0.002342
936.3221	0.002384
939.4549	0.002237
942.5889	0.001920
945.7241	0.001097
948.8606	0.000295
951.9983	0.001857
955.1373	0.000211
958.2775	-0.000211
961.4189	0.000274
964.5615	0.000971
967.7053	-0.000401
970.8504	0.000907
973.9966	0.001604
977.1440	0.002258
980.2926	-0.000169
983.4424	0.001646
986.5934	0.000992
989.7456	-0.000211
992.8989	0.000106
996.0534	0.000338
999.2090	0.001625
1002.37	0.000317
1005.52	-0.000549
1008.68	-0.000253
1011.84	0.001730
1015	0.000169
1018.17	-0.000380
1021.33	-0.000359
1023.03	-0.000950