Folder: Auto_Polymerization/Auto_Polymerization/Data/UV_VIS_Spectra/MRG-061-F5_spectra_while_stopped_with_alu_foil (part 5)

File: spectrum_2025-06-20_10-28-31_absorbance.txt
# Wavelength	Absorbance
197.78 0.954243
200.433 1.209260
203.089 0.311995
205.748 2.682145
208.408 0.102167
211.072 3.104487
213.738 2.985426
216.406 -0.121250
219.077 2.990339
221.75 3.183555
224.426 0.491445
227.105 2.294466
229.786 2.791691
232.469 1.959041
235.155 0.550680
237.843 -1.029555
240.534 0.000000
243.227 0.482231
245.923 3.026125
248.621 2.727541
251.321 0.235337
254.024 2.872739
256.73 3.025715
259.438 0.446974
262.148 2.989895
264.86 0.558954
267.575 -0.288441
270.293 0.000000
273.013 0.298281
275.735 -2.801404
278.46 0.289104
281.187 0.000000
283.917 2.866287
286.648 0.273999
289.383 0.750534
292.119 3.059185
294.858 3.074816
297.599 2.269513
300.343 0.904958
303.089 2.357935
305.838 1.401783
308.588 1.138489
311.341 0.264634
314.097 2.599883
316.854 3.093772
319.614 3.245019
322.377 0.931530
325.141 3.384174
327.908 0.905251
330.677 3.635484
333.449 0.951084
336.223 0.785424
338.999 3.739731
341.777 3.818094
344.558 3.886829
347.341 3.899164
350.126 1.123820
352.913 1.618103
355.703 3.991448
358.495 3.959995
361.289 1.337992
364.085 0.882593
366.884 4.063634
369.685 4.136974
372.488 1.625089
375.293 4.182329
378.1 1.266046
380.91 4.341138
383.722 2.026159
386.536 1.202592
389.352 1.297949
392.171 1.269516
394.991 1.269531
397.814 1.207519
400.639 1.131259
403.466 0.926352
406.295 0.798225
409.127 0.696963
411.961 0.693616
414.796 0.551401
417.634 0.507895
420.474 0.512007
423.316 0.478676
426.161 0.486579
429.007 0.441724
431.855 0.434439
434.706 0.382508
437.559 0.410309
440.413 0.440127
443.27 0.433226
446.129 0.443615
448.99 0.428311
451.853 0.495996
454.719 0.466240
457.586 0.564053
460.455 0.554218
463.327 0.640710
466.2 0.736076
469.076 0.670752
471.953 0.835661
474.833 0.820924
477.714 0.920394
480.598 1.024468
483.484 0.987447
486.372 1.084294
489.261 1.056216
492.153 1.133259
495.047 1.231420
497.942 1.923070
500.84 1.237351
503.74 1.336049
506.641 1.590772
509.545 1.195646
512.451 1.344885
515.358 1.233840
518.268 1.165364
521.179 1.362034
524.093 1.032274
527.008 1.024206
529.925 1.022877
532.845 0.809642
535.766 0.757870
538.689 0.759164
541.614 0.713266
544.541 0.670149
547.47 0.575739
550.401 0.499738
553.333 0.451907
556.268 0.431102
559.204 0.361237
562.143 0.379714
565.083 0.283977
568.025 0.276114
570.969 0.240260
573.915 0.229245
576.863 0.211980
579.812 0.193363
582.764 0.167201
585.717 0.160506
588.672 0.144489
591.629 0.152780
594.587 0.139402
597.548 0.128865
600.51 0.129624
603.475 0.119676
606.441 0.117329
609.409 0.110388
612.378 0.121412
615.35 0.109083
618.323 0.111061
621.298 0.120784
624.274 0.091992
627.253 0.099748
630.233 0.109908
633.215 0.094474
636.199 0.091066
639.185 0.083976
642.172 0.102648
645.161 0.101078
648.152 0.095457
651.144 0.093229
654.139 0.099523
657.135 0.109283
660.133 0.175855
663.132 0.154888
666.133 0.116606
669.136 0.101321
672.14 0.105979
675.147 0.085790
678.154 0.089397
681.164 0.102977
684.175 0.085064
687.188 0.102752
690.203 0.105479
693.219 0.102405
696.237 0.106580
699.257 0.117897
702.278 0.104096
705.301 0.116522
708.325 0.072537
711.351 0.060995
714.379 0.071517
717.409 0.133578
720.439 0.098428
723.472 0.070928
726.506 0.100870
729.542 0.104128
732.58 0.118069
735.619 0.087916
738.659 0.111768
741.701 0.092600
744.745 0.089900
747.79 0.093882
750.837 0.079497
753.886 0.090449
756.936 0.112207
759.987 0.076586
763.04 0.084924
766.095 0.079725
769.151 0.118347
772.209 0.067221
775.268 0.084885
778.329 0.121003
781.391 0.101624
784.455 0.067021
787.52 0.088418
790.587 0.079927
793.655 0.106179
796.725 0.186553
799.796 0.144936
802.869 0.132449
805.943 0.084995
809.019 0.110260
812.096 0.047485
815.174 0.113051
818.254 0.144781
821.336 0.122128
824.419 0.029102
827.503 0.124508
830.589 0.086396
833.676 0.115760
836.765 0.114210
839.855 0.088067
842.946 0.070394
846.039 0.279534
849.133 0.149199
852.229 0.164741
855.326 0.122127
858.424 0.073996
861.524 0.334314
864.625 0.209996
867.728 0.103286
870.832 0.203754
873.937 0.153261
877.044 0.119168
880.152 0.043062
883.261 0.106451
886.372 0.105806
889.484 0.097006
892.598 0.167466
895.712 0.324900
898.828 0.174100
901.946 0.194631
905.064 0.025989
908.184 0.164464
911.306 0.154390
914.428 0.207760
917.552 0.208269
920.677 -0.035600
923.804 0.224689
926.931 0.539040
930.06 -0.048810
933.191 1.469471
936.322 -0.090998
939.455 0.140829
942.589 0.606449
945.724 0.363324
948.861 0.141765
951.998 0.879531
955.137 -0.438419
958.278 2.826723
961.419 -0.304395
964.562 0.410244
967.705 3.152288
970.85 1.086868
973.997 2.994757
977.144 0.488417
980.293 3.008600
983.442 2.610660
986.593 2.820201
989.746 2.123852
992.899 2.866287
996.053 2.866287
999.209 0.000000
1002.37 2.599883
1005.52 0.216007
1008.68 2.691965
1011.84 -0.223013
1015 -3.005609
1018.17 0.316325
1021.33 -3.072617
1023.03 2.812913