Folder: Auto_Polymerization/Auto_Polymerization/Data/UV_VIS_Spectra/MRG-061-G- spectra_G1_G2_after_aminolysis

Note: README.md
# Auto_Polymerization

[![Python 3.10](https://img.shields.io/badge/python-3.10-blue.svg)](https://www.python.org/downloads/)
[![License: MIT](https://img.shields.io/badge/License-MIT-yellow.svg)](https://opensource.org/licenses/MIT)

This repository contains the **Auto_Polymerization platform** for automated polymer synthesis and characterization.

## ğŸš€ Quick Start

### Device Testing

For testing real devices in your Auto_Polymerization platform, see the demo folder:

```bash
cd Auto_Polymerization/demo
python demo_device_test.py
```

This will guide you through testing individual devices with safe parameters.

For comprehensive device testing:

```bash
cd Auto_Polymerization/demo
python device_test_controller.py
```

ğŸ“– See [`Auto_Polymerization/demo/DEVICE_TESTING_README.md`](Auto_Polymerization/demo/DEVICE_TESTING_README.md) for detailed documentation.

## ğŸ“¦ Required Packages and Setup

### ğŸ”§ Hardware Drivers

Install drivers for the devices used in this project:

- **[Thorlabs CCS200 Spectrometer](https://www.thorlabs.com/thorproduct.cfm?partnumber=CCS200#ad-image-0)** - UV-VIS spectroscopy
- **[Thorlabs upLED Controller](https://www.thorlabs.com/thorproduct.cfm?partnumber=UPLED)** - LED control

### ğŸ Python Environment

**Python Version:** 3.10

Install the linear actuator and valves control package from the local source in editable mode:

```bash
pip install -e src/linear_actuator_and_valves/
```

### ğŸ“š Core Dependencies

```bash
pip install scipy numpy pandas matplotlib pyserial nmrglue requests pyyaml medusa-sdl
```

### ğŸ”¬ MatterLab Packages

Install from [MatterLab devices repository](https://gitlab.com/aspuru-guzik-group/self-driving-lab/devices):

#### Easy Installation (if available):
```bash
pip install matterlab_hotplates
pip install matterlab_pumps
pip install matterlab_serial_device
```

#### Manual Installation:

**Hotplates, Pumps, Serial Device:**

https://gitlab.com/aspuru-guzik-group/self-driving-lab/devices



**Spectrometers:**

- **NMR (Nanalysis Benchtop):**

  git clone https://gitlab.com/aspuru-guzik-group/self-driving-lab/devices/nmr
  cd nmr
  git checkout develop
  pip install -e .


- **UV-VIS (Thorlabs CCS200):**

  git clone https://gitlab.com/aspuru-guzik-group/self-driving-lab/devices/spectrometer
  cd spectrometer
  git checkout develop
  pip install -e .


> **Note:** If access is not public, contact Han Hao at University of Toronto.

### âš™ï¸ Configuration

**CSS200 Spectrometer DLL:**
Potentially you need to update the `DLL_FILE` value in `ccs_spectrometer.py` in the matterlab package:
The correct file path is typically: 
DLL_FILE = Path(r"C:\Program Files\IVI Foundation\VISA\Win64\Bin\TLCCS_64.dll")
#

**Arduino Setup:**
1. Install Arduino IDE on your PC
2. Upload the Arduino code from `users/setup/` to your Arduino board
3. An overview of the hardware connections of the GPIO pins is given in "Arduino_contacts_overview_2025_06_27_bb.jpg"
## âš ï¸ Important Notes



## ğŸ“ Project Struc

File: MRG-061-G-1_after_aminolysis_spectrum_2025-06-20_14-42-59_absorbance.txt
# Wavelength	Absorbance
197.78 -0.189664
200.433 0.944142
203.089 3.034628
205.748 0.429292
208.408 0.356970
211.072 3.104487
213.738 0.003608
216.406 2.902003
219.077 -0.115171
221.75 0.017717
224.426 -0.044097
227.105 2.294466
229.786 -0.559526
232.469 -0.654800
235.155 0.307902
237.843 1.851258
240.534 -2.835691
243.227 2.710117
245.923 0.350346
248.621 0.136477
251.321 -0.465547
254.024 -0.047906
256.73 0.246841
259.438 2.975891
262.148 2.989895
264.86 -0.299612
267.575 -0.142668
270.293 -2.514548
273.013 1.294191
275.735 -3.159567
278.46 2.935507
281.187 0.000000
283.917 0.299261
286.648 -0.193022
289.383 0.344034
292.119 3.059185
294.858 0.030669
297.599 2.269513
300.343 0.040764
303.089 2.357935
305.838 0.302947
308.588 3.242293
311.341 0.100270
314.097 2.599883
316.854 0.479930
319.614 3.245019
322.377 0.307242
325.141 3.384174
327.908 3.508395
330.677 0.856609
333.449 0.819544
336.223 3.666237
338.999 0.641433
341.777 3.818094
344.558 3.886829
347.341 1.554771
350.126 0.938368
352.913 2.855464
355.703 1.212573
358.495 1.028537
361.289 1.041708
364.085 1.057577
366.884 4.063634
369.685 4.136974
372.488 1.152834
375.293 1.360161
378.1 1.366775
380.91 1.331262
383.722 1.065110
386.536 1.830393
389.352 4.400383
392.171 1.571126
394.991 1.675221
397.814 2.545346
400.639 1.148081
403.466 1.560140
406.295 4.555469
409.127 1.902964
411.961 1.561582
414.796 1.170823
417.634 1.435969
420.474 1.329167
423.316 0.924833
426.161 0.782029
429.007 0.817223
431.855 0.624640
434.706 0.553516
437.559 0.496718
440.413 0.475527
443.27 0.451563
446.129 0.402543
448.99 0.341912
451.853 0.338356
454.719 0.336243
457.586 0.299573
460.455 0.259157
463.327 0.279934
466.2 0.232412
469.076 0.264368
471.953 0.236089
474.833 0.293360
477.714 0.259490
480.598 0.261425
483.484 0.274957
486.372 0.166533
489.261 0.219207
492.153 0.242784
495.047 0.240561
497.942 0.237670
500.84 0.225479
503.74 0.270290
506.641 0.251759
509.545 0.230937
512.451 0.230672
515.358 0.248781
518.268 0.236577
521.179 0.210634
524.093 0.276682
527.008 0.200975
529.925 0.266051
532.845 0.267433
535.766 0.226324
538.689 0.247163
541.614 0.228219
544.541 0.245560
547.47 0.216137
550.401 0.194862
553.333 0.253217
556.268 0.216915
559.204 0.204591
562.143 0.201678
565.083 0.207453
568.025 0.211527
570.969 0.251484
573.915 0.229433
576.863 0.241956
579.812 0.222858
582.764 0.181944
585.717 0.211082
588.672 0.204607
591.629 0.226380
594.587 0.206230
597.548 0.229237
600.51 0.215929
603.475 0.205153
606.441 0.178223
609.409 0.189386
612.378 0.195675
615.35 0.220320
618.323 0.177631
621.298 0.173906
624.274 0.201273
627.253 0.220840
630.233 0.203451
633.215 0.186895
636.199 0.199955
639.185 0.170544
642.172 0.180098
645.161 0.210197
648.152 0.221307
651.144 0.198766
654.139 0.211934
657.135 0.106170
660.133 0.084171
663.132 0.190270
666.133 0.224368
669.136 0.188119
672.14 0.236297
675.147 0.214844
678.154 0.203783
681.164 0.231555
684.175 0.207383
687.188 0.192899
690.203 0.189401
693.219 0.193448
696.237 0.192500
699.257 0.193819
702.278 0.185204
705.301 0.191230
708.325 0.164244
711.351 0.130344
714.379 0.161127
717.409 0.172141
720.439 0.167986
723.472 0.168267
726.506 0.216012
729.542 0.183378
732.58 0.216984
735.619 0.203181
738.659 0.185300
741.701 0.176233
744.745 0.201627
747.79 0.152770
750.837 0.151183
753.886 0.199964
756.936 0.195610
759.987 0.192788
763.04 0.195146
766.095 0.161221
769.151 0.199581
772.209 0.155225
775.268 0.162166
778.329 0.190198
781.391 0.201081
784.455 0.173574
787.52 0.203174
790.587 0.159156
793.655 0.255847
796.725 0.151094
799.796 0.152009
802.869 0.149096
805.943 0.217934
809.019 0.206891
812.096 0.178983
815.174 0.115933
818.254 0.157531
821.336 0.256735
824.419 0.144258
827.503 0.176091
830.589 0.108229
833.676 0.209011
836.765 0.104479
839.855 0.140038
842.946 0.047473
846.039 0.259799
849.133 0.127931
852.229 0.202460
855.326 0.209334
858.424 0.101680
861.524 0.263547
864.625 0.177073
867.728 0.137931
870.832 0.299609
873.937 0.154813
877.044 0.023129
880.152 0.241724
883.261 0.041306
886.372 0.072054
889.484 -0.030393
892.598 0.375467
895.712 0.387007
898.828 0.283099
901.946 0.262594
905.064 0.331086
908.184 -0.078747
911.306 0.191739
914.428 -0.089354
917.552 0.179499
920.677 0.081207
923.804 0.511700
926.931 0.064672
930.06 0.260348
933.191 -0.124632
936.322 -0.071986
939.455 0.387148
942.589 -0.008172
945.724 0.481677
948.861 0.099452
951.998 -0.156209
955.137 -0.454581
958.278 -0.439274
961.419 -0.347222
964.562 0.489425
967.705 -0.013549
970.85 0.985841
973.997 -0.218495
977.144 0.026730
980.293 -0.295244
983.442 -0.655336
986.593 -0.270762
989.746 -0.259964
992.899 0.102859
996.053 0.102859
999.209 -3.308351
1002.37 -0.790345
1005.52 0.470064
1008.68 -0.420975
1011.84 2.872156
1015 -2.252853
1018.17 0.195895
1021.33 -3.140194
1023.03 2.812913

File: MRG-061-G-2_after_aminolysis_spectrum_2025-06-20_14-49-03_absorbance.txt
# Wavelength	Absorbance
197.78 2.878522
200.433 3.008600
203.089 -0.153174
205.748 2.682145
208.408 2.970812
211.072 3.104487
213.738 0.512670
216.406 2.902003
219.077 2.990339
221.75 3.183555
224.426 2.719331
227.105 2.294466
229.786 2.791691
232.469 1.959041
235.155 0.633878
237.843 1.851258
240.534 -2.328380
243.227 0.897204
245.923 -0.111546
248.621 0.554355
251.321 0.329856
254.024 0.431830
256.73 0.398350
259.438 0.203569
262.148 0.073967
264.86 2.662758
267.575 -0.324838
270.293 -2.328380
273.013 0.042704
275.735 -2.926857
278.46 2.935507
281.187 -2.604226
283.917 -0.355909
286.648 2.940516
289.383 3.074816
292.119 3.059185
294.858 0.318180
297.599 0.456600
300.343 3.270446
303.089 -0.875061
305.838 0.728367
308.588 3.242293
311.341 0.327963
314.097 2.599883
316.854 0.591345
319.614 3.245019
322.377 0.657673
325.141 3.384174
327.908 0.952093
330.677 1.133057
333.449 3.655235
336.223 0.909601
338.999 1.333190
341.777 0.777096
344.558 3.886829
347.341 3.899164
350.126 1.306345
352.913 3.896857
355.703 0.994498
358.495 1.355769
361.289 2.680414
364.085 1.789498
366.884 0.968116
369.685 4.136974
372.488 1.336328
375.293 4.182329
378.1 1.696963
380.91 4.341138
383.722 1.062193
386.536 1.403490
389.352 4.400383
392.171 1.251069
394.991 1.652108
397.814 1.564506
400.639 1.934084
403.466 1.490294
406.295 2.272168
409.127 1.414270
411.961 1.306155
414.796 1.239084
417.634 1.137844
420.474 1.147057
423.316 1.026331
426.161 0.778047
429.007 0.800051
431.855 0.648603
434.706 0.643261
437.559 0.622185
440.413 0.522016
443.27 0.431448
446.129 0.443751
448.99 0.387515
451.853 0.385443
454.719 0.281991
457.586 0.302155
460.455 0.276490
463.327 0.294487
466.2 0.251685
469.076 0.245420
471.953 0.232188
474.833 0.222665
477.714 0.204515
480.598 0.232740
483.484 0.240337
486.372 0.162045
489.261 0.216878
492.153 0.243362
495.047 0.192658
497.942 0.202023
500.84 0.205097
503.74 0.230241
506.641 0.213101
509.545 0.226120
512.451 0.208150
515.358 0.207050
518.268 0.188562
521.179 0.222789
524.093 0.226083
527.008 0.173813
529.925 0.235402
532.845 0.204734
535.766 0.188597
538.689 0.173799
541.614 0.211973
544.541 0.186609
547.47 0.204800
550.401 0.175012
553.333 0.217739
556.268 0.176856
559.204 0.186386
562.143 0.176586
565.083 0.185883
568.025 0.184372
570.969 0.201847
573.915 0.206408
576.863 0.218160
579.812 0.194299
582.764 0.143903
585.717 0.177451
588.672 0.174660
591.629 0.197676
594.587 0.177365
597.548 0.181894
600.51 0.176873
603.475 0.200898
606.441 0.135098
609.409 0.168224
612.378 0.160501
615.35 0.183857
618.323 0.153759
621.298 0.142829
624.274 0.162559
627.253 0.157984
630.233 0.165250
633.215 0.156240
636.199 0.160280
639.185 0.149308
642.172 0.119457
645.161 0.133193
648.152 0.200132
651.144 0.162394
654.139 0.167701
657.135 0.069698
660.133 0.070863
663.132 0.146469
666.133 0.186639
669.136 0.171572
672.14 0.205224
675.147 0.126479
678.154 0.128335
681.164 0.158006
684.175 0.154173
687.188 0.143285
690.203 0.136075
693.219 0.165662
696.237 0.156581
699.257 0.150855
702.278 0.161866
705.301 0.177558
708.325 0.159733
711.351 0.150013
714.379 0.125831
717.409 0.148599
720.439 0.166583
723.472 0.122567
726.506 0.149008
729.542 0.122989
732.58 0.166021
735.619 0.134475
738.659 0.122787
741.701 0.134154
744.745 0.118727
747.79 0.103052
750.837 0.119146
753.886 0.161756
756.936 0.123325
759.987 0.144923
763.04 0.099408
766.095 0.114572
769.151 0.123709
772.209 0.138436
775.268 0.148687
778.329 0.133143
781.391 0.163195
784.455 0.112891
787.52 0.182340
790.587 0.143902
793.655 0.175294
796.725 0.111210
799.796 0.124749
802.869 0.058896
805.943 0.127383
809.019 0.132615
812.096 0.132803
815.174 0.129934
818.254 0.139036
821.336 0.148561
824.419 0.118891
827.503 0.214152
830.589 -0.009313
833.676 0.239058
836.765 0.121083
839.855 0.163323
842.946 0.167797
846.039 0.061585
849.133 0.272482
852.229 0.186056
855.326 0.146836
858.424 0.222884
861.524 0.162390
864.625 0.367548
867.728 0.015128
870.832 0.232065
873.937 0.194920
877.044 0.019842
880.152 0.174862
883.261 0.043447
886.372 0.132612
889.484 0.219225
892.598 0.204491
895.712 0.105273
898.828 0.221598
901.946 0.072711
905.064 0.171412
908.184 0.049630
911.306 0.487522
914.428 -0.044857
917.552 0.230933
920.677 0.286387
923.804 0.353101
926.931 -0.059576
930.06 0.630396
933.191 0.328545
936.322 -0.193281
939.455 0.423804
942.589 -0.067293
945.724 0.099255
948.861 0.637924
951.998 0.576633
955.137 -0.297564
958.278 -0.066484
961.419 -0.119109
964.562 0.750426
967.705 3.152288
970.85 2.710117
973.997 2.994757
977.144 0.469112
980.293 0.340214
983.442 -0.282547
986.593 -0.061183
989.746 0.310938
992.899 -0.182931
996.053 2.866287
999.209 -2.627366
1002.37 0.097456
1005.52 3.183555
1008.68 -0.483837
1011.84 0.015427
1015 -2.328380
1018.17 0.444264
1021.33 -2.830589
1023.03 2.812913

File: MRG-061-G-2_after_aminolysis_spectrum_2025-06-20_14-49-16_absorbance.txt
# Wavelength	Absorbance
197.78 0.380211
200.433 3.008600
203.089 0.088176
205.748 2.682145
208.408 2.970812
211.072 0.225391
213.738 0.049416
216.406 -0.093193
219.077 -0.262757
221.75 0.518913
224.426 -0.275865
227.105 2.294466
229.786 2.791691
232.469 -0.826288
235.155 3.406199
237.843 1.851258
240.534 -2.737987
243.227 -0.104130
245.923 3.026125
248.621 -0.139337
251.321 0.817318
254.024 0.271766
256.73 0.039840
259.438 2.975891
262.148 1.070816
264.86 2.662758
267.575 -0.067537
270.293 0.000000
273.013 0.525183
275.735 0.000000
278.46 0.010195
281.187 -3.094122
283.917 0.052040
286.648 0.015204
289.383 0.260569
292.119 3.059185
294.858 -0.019305
297.599 -0.228798
300.343 0.038467
303.089 -0.705774
305.838 3.201124
308.588 1.077940
311.341 0.718954
314.097 -0.228132
316.854 0.871055
319.614 1.227986
322.377 0.962136
325.141 3.384174
327.908 3.508395
330.677 0.897496
333.449 0.525545
336.223 1.501884
338.999 0.860635
341.777 0.951216
344.558 0.550369
347.341 0.790261
350.126 3.910571
352.913 0.892106
355.703 0.952033
358.495 3.959995
361.289 1.056267
364.085 4.019947
366.884 1.127623
369.685 0.938317
372.488 1.166504
375.293 4.182329
378.1 1.374169
380.91 4.341138
383.722 1.278928
386.536 4.371972
389.352 1.697952
392.171 1.690680
394.991 4.469012
397.814 2.088501
400.639 1.345464
403.466 1.341524
406.295 4.555469
409.127 1.602437
411.961 1.260783
414.796 1.249053
417.634 1.176366
420.474 0.977880
423.316 1.000294
426.161 0.886050
429.007 0.725220
431.855 0.646822
434.706 0.630992
437.559 0.575874
440.413 0.496766
443.27 0.424923
446.129 0.388060
448.99 0.394123
451.853 0.339685
454.719 0.327997
457.586 0.290450
460.455 0.252827
463.327 0.303988
466.2 0.243601
469.076 0.209979
471.953 0.196003
474.833 0.239048
477.714 0.241675
480.598 0.206258
483.484 0.224715
486.372 0.144731
489.261 0.204963
492.153 0.204453
495.047 0.201511
497.942 0.200072
500.84 0.214347
503.74 0.206190
506.641 0.234710
509.545 0.214956
512.451 0.190099
515.358 0.189054
518.268 0.215804
521.179 0.222128
524.093 0.194103
527.008 0.203767
529.925 0.212407
532.845 0.183089
535.766 0.186766
538.689 0.169554
541.614 0.181414
544.541 0.188344
547.47 0.230538
550.401 0.159313
553.333 0.173926
556.268 0.215852
559.204 0.188951
562.143 0.156734
565.083 0.180984
568.025 0.201751
570.969 0.201161
573.915 0.200296
576.863 0.208910
579.812 0.200222
582.764 0.131955
585.717 0.177307
588.672 0.166232
591.629 0.187696
594.587 0.162558
597.548 0.183148
600.51 0.156056
603.475 0.197698
606.441 0.138328
609.409 0.144360
612.378 0.163420
615.35 0.187980
618.323 0.152660
621.298 0.128052
624.274 0.154018
627.253 0.163640
630.233 0.150766
633.215 0.146506
636.199 0.167652
639.185 0.122574
642.172 0.156998
645.161 0.169897
648.152 0.186359
651.144 0.149137
654.139 0.176060
657.135 0.070535
660.133 0.054897
663.132 0.171580
666.133 0.112040
669.136 0.195318
672.14 0.194174
675.147 0.123468
678.154 0.134853
681.164 0.161190
684.175 0.181694
687.188 0.141124
690.203 0.153368
693.219 0.122912
696.237 0.140853
699.257 0.140341
702.278 0.165067
705.301 0.096258
708.325 0.117545
711.351 0.104607
714.379 0.099045
717.409 0.120769
720.439 0.089568
723.472 0.119248
726.506 0.118780
729.542 0.143689
732.58 0.143029
735.619 0.145160
738.659 0.118753
741.701 0.118598
744.745 0.117632
747.79 0.159439
750.837 0.105287
753.886 0.187249
756.936 0.139527
759.987 0.137776
763.04 0.120164
766.095 0.101334
769.151 0.145459
772.209 0.129227
775.268 0.098753
778.329 0.120353
781.391 0.149044
784.455 0.131781
787.52 0.157174
790.587 0.114100
793.655 0.153899
796.725 0.118943
799.796 0.167780
802.869 0.117414
805.943 0.136363
809.019 0.132735
812.096 0.082740
815.174 0.119108
818.254 0.179218
821.336 0.215063
824.419 0.059534
827.503 0.121544
830.589 0.073036
833.676 0.283413
836.765 0.135432
839.855 0.091286
842.946 0.018039
846.039 0.221006
849.133 0.226107
852.229 0.219259
855.326 0.112663
858.424 0.143716
861.524 0.215346
864.625 0.180033
867.728 -0.000934
870.832 0.148493
873.937 0.074911
877.044 -0.004711
880.152 0.112781
883.261 0.087926
886.372 0.076094
889.484 0.072778
892.598 0.079896
895.712 -0.002656
898.828 0.054850
901.946 0.132473
905.064 0.142316
908.184 0.140246
911.306 0.352843
914.428 0.173415
917.552 0.163624
920.677 -0.032526
923.804 0.248180
926.931 -0.231381
930.06 0.053637
933.191 0.178113
936.322 -0.052103
939.455 1.224752
942.589 0.143950
945.724 0.895411
948.861 3.265290
951.998 0.746708
955.137 -0.358551
958.278 2.826723
961.419 -0.116903
964.562 0.373757
967.705 0.050541
970.85 0.613207
973.997 0.256770
977.144 3.192567
980.293 0.646872
983.442 -0.676694
986.593 2.820201
989.746 -0.730454
992.899 0.080958
996.053 1.264227
999.209 -1.792392
1002.37 2.599883
1005.52 3.183555
1008.68 -0.561130
1011.84 2.872156
1015 -2.854306
1018.17 3.231724
1021.33 -2.664642
1023.03 2.812913

File: MRG-061-G-2_after_aminolysis_spectrum_2025-06-20_14-49-28.txt
# Wavelength (nm)	Intensity (a.u.)
197.7802	0.001293
200.4334	-0.000604
203.0892	-0.000457
205.7475	0.001420
208.4084	0.000218
211.0718	-0.000647
213.7376	0.000640
216.4060	0.000197
219.0769	0.001040
221.7503	0.002200
224.4262	0.000640
227.1046	-0.001448
229.7855	0.000787
232.4688	0.001061
235.1546	0.001504
237.8429	0.001188
240.5337	-0.000731
243.2269	0.000197
245.9225	0.001209
248.6206	0.000281
251.3212	0.002073
254.0242	-0.000562
256.7296	0.001209
259.4375	0.001335
262.1477	0.001673
264.8604	0.000323
267.5755	0.000492
270.2931	0.000640
273.0130	0.000618
275.7353	0.000007
278.4600	0.000745
281.1871	0.000998
283.9166	0.000977
286.6484	0.000914
289.3827	0.001420
292.1193	-0.000857
294.8582	0.000998
297.5995	0.000829
300.3432	-0.000415
303.0892	0.000408
305.8376	0.000977
308.5883	-0.001005
311.3413	0.002137
314.0967	0.000513
316.8543	0.001947
319.6143	0.000176
322.3766	0.001968
325.1412	0.001103
327.9082	-0.000162
330.6774	0.000998
333.4489	0.001588
336.2227	0.000808
338.9987	0.001378
341.7771	-0.000415
344.5577	0.000745
347.3406	0.000935
350.1257	0.001694
352.9131	0.000998
355.7027	0.000302
358.4946	-0.000162
361.2888	-0.000267
364.0851	-0.000604
366.8837	0.000408
369.6845	0.000829
372.4876	0.001567
375.2928	0.000070
378.1003	0.000640
380.9100	0.000745
383.7219	-0.000119
386.5359	0.000281
389.3522	0.000302
392.1706	0.002094
394.9912	0.000302
397.8140	0.001251
400.6390	0.000513
403.4661	0.001167
406.2954	0.000661
409.1269	0.000555
411.9605	0.001462
414.7962	0.002411
417.6341	0.003254
420.4741	0.004287
423.3162	0.005594
426.1605	0.004856
429.0068	0.007176
431.8553	0.009790
434.7059	0.010908
437.5586	0.012637
440.4135	0.013438
443.2703	0.020311
446.1293	0.020754
448.9904	0.020775
451.8535	0.023348
454.7188	0.020965
457.5860	0.024718
460.4554	0.026131
463.3268	0.025730
466.2003	0.032772
469.0758	0.026953
471.9533	0.025119
474.8329	0.026173
477.7145	0.028977
480.5982	0.031402
483.4838	0.031908
486.3715	0.102983
489.2612	0.033320
492.1529	0.033320
495.0466	0.031360
497.9423	0.027459
500.8400	0.030052
503.7397	0.036462
506.6414	0.032646
509.5450	0.030179
512.4506	0.029209
515.3582	0.026531
518.2677	0.023727
521.1792	0.023685
524.0927	0.024170
527.0081	0.024971
529.9254	0.024149
532.8447	0.026046
535.7659	0.026890
538.6890	0.026637
541.6140	0.028998
544.5410	0.032224
547.4699	0.033468
550.4007	0.030242
553.3333	0.033616
556.2679	0.037875
559.2044	0.029546
562.1427	0.036736
565.0829	0.038802
568.0250	0.053498
570.9690	0.102414
573.9149	0.131553
576.8626	0.150023
579.8121	0.163348
582.7635	0.202165
585.7167	0.181418
588.6718	0.148020
591.6288	0.098893
594.5875	0.127441
597.5481	0.107327
600.5105	0.130035
603.4747	0.134631
606.4407	0.115191
609.4085	0.092504
612.3781	0.092821
615.3495	0.093179
618.3227	0.076396
621.2977	0.052507
624.2745	0.061426
627.2530	0.047932
630.2333	0.044137
633.2154	0.031107
636.1992	0.031275
639.1848	0.029188
642.1721	0.023475
645.1612	0.020215
648.1520	0.020909
651.1445	0.020408
654.1388	0.024846
657.1348	0.624629
660.1325	0.031923
663.1319	0.017564
666.1330	0.018590
669.1359	0.014850
672.1404	0.025203
675.1466	0.019173
678.1545	0.022209
681.1641	0.024254
684.1754	0.024043
687.1883	0.031697
690.2029	0.025857
693.2192	0.029884
696.2371	0.021808
699.2567	0.025393
702.2779	0.020670
705.3008	0.018920
708.3253	0.028302
711.3514	0.023643
714.3791	0.025119
717.4085	0.019953
720.4395	0.021724
723.4721	0.022546
726.5063	0.024275
729.5421	0.027522
732.5795	0.032435
735.6185	0.038275
738.6591	0.027733
741.7013	0.025646
744.7450	0.022588
747.7903	0.023221
750.8372	0.029146
753.8856	0.032899
756.9356	0.038254
759.9872	0.044348
763.0403	0.036926
766.0949	0.035935
769.1510	0.035914
772.2087	0.030601
775.2679	0.021661
778.3287	0.017887
781.3909	0.026974
784.4547	0.020902
787.5199	0.022905
790.5867	0.019637
793.6550	0.017296
796.7247	0.015799
799.7959	0.016959
802.8686	0.012890
805.9428	0.014745
809.0185	0.018772
812.0956	0.013058
815.1742	0.013733
818.2542	0.010591
821.3357	0.011814
824.4186	0.009179
827.5029	0.010064
830.5887	0.008588
833.6759	0.007998
836.7646	0.006311
839.8546	0.005173
842.9461	0.004435
846.0390	0.004772
849.1333	0.003823
852.2289	0.006185
855.3260	0.009453
858.4245	0.007914
861.5243	0.003317
864.6255	0.004751
867.7281	0.007682
870.8321	0.004751
873.9374	0.003359
877.0441	0.004372
880.1521	0.006944
883.2615	0.006944
886.3722	0.005995
889.4843	0.005721
892.5977	0.004013
895.7124	0.003570
898.8284	0.004835
901.9458	0.004161
905.0644	0.003781
908.1844	0.003634
911.3057	0.002769
914.4283	0.003739
917.5521	0.003128
920.6773	0.002980
923.8037	0.002158
926.9314	0.001420
930.0604	0.000850
933.1906	0.001694
936.3221	0.001546
939.4549	0.001841
942.5889	0.001378
945.7241	0.001378
948.8606	0.000597
951.9983	0.001504
955.1373	0.000408
958.2775	0.002010
961.4189	0.001082
964.5615	0.000323
967.7053	0.000850
970.8504	0.000197
973.9966	0.001272
977.1440	0.001462
980.2926	-0.000035
983.4424	0.000640
986.5934	0.000871
989.7456	0.000070
992.8989	-0.000836
996.0534	0.002896
999.2090	-0.000077
1002.37	-0.000288
1005.52	-0.000077
1008.68	0.000408
1011.84	0.002664
1015	0.001314
1018.17	0.000429
1021.33	-0.000394
1023.03	0.000618