Folder: Auto_Polymerization/Auto_Polymerization/Spectra/MRG-061-F-2_spectra_while_stopped

Note: README.md
# Auto_Polymerization

[![Python 3.10](https://img.shields.io/badge/python-3.10-blue.svg)](https://www.python.org/downloads/)
[![License: MIT](https://img.shields.io/badge/License-MIT-yellow.svg)](https://opensource.org/licenses/MIT)

This repository contains the **Auto_Polymerization platform** for automated polymer synthesis and characterization.

## ğŸš€ Quick Start

### Device Testing

For testing real devices in your Auto_Polymerization platform, see the demo folder:

```bash
cd Auto_Polymerization/demo
python demo_device_test.py
```

This will guide you through testing individual devices with safe parameters.

For comprehensive device testing:

```bash
cd Auto_Polymerization/demo
python device_test_controller.py
```

ğŸ“– See [`Auto_Polymerization/demo/DEVICE_TESTING_README.md`](Auto_Polymerization/demo/DEVICE_TESTING_README.md) for detailed documentation.

## ğŸ“¦ Required Packages and Setup

### ğŸ”§ Hardware Drivers

Install drivers for the devices used in this project:

- **[Thorlabs CCS200 Spectrometer](https://www.thorlabs.com/thorproduct.cfm?partnumber=CCS200#ad-image-0)** - UV-VIS spectroscopy
- **[Thorlabs upLED Controller](https://www.thorlabs.com/thorproduct.cfm?partnumber=UPLED)** - LED control

### ğŸ Python Environment

**Python Version:** 3.10

Install the linear actuator and valves control package from the local source in editable mode:

```bash
pip install -e src/linear_actuator_and_valves/
```

### ğŸ“š Core Dependencies

```bash
pip install scipy numpy pandas matplotlib pyserial nmrglue requests pyyaml medusa-sdl
```

### ğŸ”¬ MatterLab Packages

Install from [MatterLab devices repository](https://gitlab.com/aspuru-guzik-group/self-driving-lab/devices):

#### Easy Installation (if available):
```bash
pip install matterlab_hotplates
pip install matterlab_pumps
pip install matterlab_serial_device
```

#### Manual Installation:

**Hotplates, Pumps, Serial Device:**

https://gitlab.com/aspuru-guzik-group/self-driving-lab/devices



**Spectrometers:**

- **NMR (Nanalysis Benchtop):**

  git clone https://gitlab.com/aspuru-guzik-group/self-driving-lab/devices/nmr
  cd nmr
  git checkout develop
  pip install -e .


- **UV-VIS (Thorlabs CCS200):**

  git clone https://gitlab.com/aspuru-guzik-group/self-driving-lab/devices/spectrometer
  cd spectrometer
  git checkout develop
  pip install -e .


> **Note:** If access is not public, contact Han Hao at University of Toronto.

### âš™ï¸ Configuration

**CSS200 Spectrometer DLL:**
Potentially you need to update the `DLL_FILE` value in `ccs_spectrometer.py` in the matterlab package:
The correct file path is typically: 
DLL_FILE = Path(r"C:\Program Files\IVI Foundation\VISA\Win64\Bin\TLCCS_64.dll")
#

**Arduino Setup:**
1. Install Arduino IDE on your PC
2. Upload the Arduino code from `users/setup/` to your Arduino board
3. An overview of the hardware connections of the GPIO pins is given in "Arduino_contacts_overview_2025_06_27_bb.jpg"
## âš ï¸ Important Notes



## ğŸ“ Project Struc

File: spectrum_2025-06-19_11-23-30.txt
# Wavelength (nm)	Intensity (a.u.)
197.7802	0.000588
200.4334	0.000946
203.0892	-0.000362
205.7475	0.000482
208.4084	0.001179
211.0718	0.000355
213.7376	0.001052
216.4060	0.000461
219.0769	0.000756
221.7503	0.000039
224.4262	0.001326
227.1046	0.000060
229.7855	0.000461
232.4688	0.000144
235.1546	0.001495
237.8429	0.001136
240.5337	-0.000405
243.2269	-0.000447
245.9225	0.001221
248.6206	0.000524
251.3212	0.000777
254.0242	-0.000278
256.7296	0.001938
259.4375	0.000208
262.1477	-0.000278
264.8604	0.000250
267.5755	-0.000025
270.2931	0.000060
273.0130	0.000967
275.7353	0.000482
278.4600	0.000820
281.1871	0.000672
283.9166	-0.000088
286.6484	0.001580
289.3827	0.001558
292.1193	0.000102
294.8582	0.001938
297.5995	0.001516
300.3432	-0.000616
303.0892	0.000186
305.8376	0.000799
308.5883	-0.000932
311.3413	0.000355
314.0967	-0.000320
316.8543	-0.000004
319.6143	0.001073
322.3766	0.000208
325.1412	0.000820
327.9082	0.001896
330.6774	0.001896
333.4489	-0.000067
336.2227	0.000102
338.9987	0.001917
341.7771	-0.000658
344.5577	0.000060
347.3406	-0.000996
350.1257	0.001010
352.9131	0.001094
355.7027	-0.000383
358.4946	0.000165
361.2888	0.000503
364.0851	0.001052
366.8837	0.001157
369.6845	-0.001228
372.4876	0.000609
375.2928	0.000060
378.1003	0.000313
380.9100	0.001052
383.7219	0.001770
386.5359	0.000925
389.3522	0.002508
392.1706	0.002107
394.9912	0.003923
397.8140	0.008482
400.6390	0.010487
403.4661	0.009495
406.2954	0.016102
409.1269	0.016524
411.9605	0.018191
414.7962	0.018994
417.6341	0.019859
420.4741	0.025241
423.3162	0.026571
426.1605	0.023447
429.0068	0.026149
431.8553	0.025642
434.7059	0.023975
437.5586	0.026001
440.4135	0.025832
443.2703	0.030877
446.1293	0.029189
448.9904	0.027648
451.8535	0.022117
454.7188	0.019226
457.5860	0.020133
460.4554	0.020703
463.3268	0.016081
466.2003	0.015996
469.0758	0.012914
471.9533	0.009706
474.8329	0.010213
477.7145	0.008418
480.5982	0.007553
483.4838	0.005295
486.3715	0.019331
489.2612	0.005231
492.1529	0.005970
495.0466	0.004661
497.9423	0.004408
500.8400	0.002846
503.7397	0.004809
506.6414	0.001770
509.5450	0.003754
512.4506	0.003374
515.3582	0.004260
518.2677	0.003690
521.1792	0.003015
524.0927	0.003711
527.0081	0.003796
529.9254	0.005041
532.8447	0.006223
535.7659	0.009537
538.6890	0.009769
541.6140	0.011542
544.5410	0.013337
547.4699	0.018107
550.4007	0.020408
553.3333	0.022708
556.2679	0.029864
559.2044	0.024946
562.1427	0.035648
565.0829	0.039278
568.0250	0.056439
570.9690	0.110749
573.9149	0.152711
576.8626	0.180320
579.8121	0.208077
582.7635	0.262240
585.7167	0.229924
588.6718	0.200394
591.6288	0.130928
594.5875	0.171540
597.5481	0.152796
600.5105	0.185175
603.4747	0.188468
606.4407	0.164806
609.4085	0.136437
612.3781	0.130548
615.3495	0.129240
618.3227	0.110855
621.2977	0.074296
624.2745	0.088079
627.2530	0.071256
630.2333	0.061505
633.2154	0.046560
636.1992	0.043922
639.1848	0.043457
642.1721	0.031258
645.1612	0.026260
648.1520	0.029748
651.1445	0.028321
654.1388	0.032135
657.1348	0.861075
660.1325	0.063241
663.1319	0.023509
666.1330	0.023976
669.1359	0.021885
672.1404	0.032397
675.1466	0.027943
678.1545	0.027563
681.1641	0.032038
684.1754	0.033706
687.1883	0.044154
690.2029	0.033748
693.2192	0.042022
696.2371	0.029357
699.2567	0.037463
702.2779	0.030919
705.3008	0.025305
708.3253	0.036619
711.3514	0.035035
714.3791	0.035922
717.4085	0.027817
720.4395	0.028999
723.4721	0.028640
726.5063	0.032798
729.5421	0.038307
732.5795	0.041368
735.6185	0.046413
738.6591	0.041600
741.7013	0.035985
744.7450	0.030856
747.7903	0.031553
750.8372	0.041262
753.8856	0.043521
756.9356	0.050887
759.9872	0.059162
763.0403	0.052238
766.0949	0.049959
769.1510	0.047384
772.2087	0.042149
775.2679	0.031320
778.3287	0.024819
781.3909	0.034086
784.4547	0.031109
787.5199	0.029801
790.5867	0.024840
793.6550	0.023891
796.7247	0.022793
799.7959	0.022244
802.8686	0.016967
805.9428	0.019627
809.0185	0.023447
812.0956	0.016672
815.1742	0.017115
818.2542	0.015743
821.3357	0.014286
824.4186	0.012218
827.5029	0.014666
830.5887	0.009052
833.6759	0.008883
836.7646	0.008798
839.8546	0.008165
842.9461	0.006455
846.0390	0.006983
849.1333	0.004176
852.2289	0.005717
855.3260	0.013590
858.4245	0.011732
861.5243	0.004936
864.6255	0.006857
867.7281	0.004492
870.8321	0.006413
873.9374	0.005463
877.0441	0.005738
880.1521	0.008207
883.2615	0.007236
886.3722	0.007616
889.4843	0.004239
892.5977	0.005843
895.7124	0.004366
898.8284	0.005590
901.9458	0.004070
905.0644	0.002361
908.1844	0.004007
911.3057	0.004366
914.4283	0.003479
917.5521	0.003796
920.6773	0.002698
923.8037	0.004450
926.9314	0.002445
930.0604	0.003479
933.1906	0.001200
936.3221	0.002551
939.4549	0.002466
942.5889	0.001580
945.7241	0.001010
948.8606	0.001580
951.9983	0.002424
955.1373	0.000102
958.2775	0.000820
961.4189	0.001495
964.5615	0.000989
967.7053	0.001263
970.8504	-0.000151
973.9966	-0.000552
977.1440	0.001748
980.2926	0.000039
983.4424	0.000398
986.5934	0.000229
989.7456	0.000461
992.8989	0.000334
996.0534	0.000735
999.2090	0.000018
1002.37	0.001580
1005.52	0.000081
1008.68	0.000735
1011.84	0.001010
1015	-0.000974
1018.17	0.000545
1021.33	0.000799
1023.03	-0.000785

File: spectrum_2025-06-19_11-28-37.txt
# Wavelength (nm)	Intensity (a.u.)
197.7802	0.001056
200.4334	-0.000380
203.0892	0.000443
205.7475	0.000063
208.4084	0.000317
211.0718	0.000887
213.7376	0.001795
216.4060	0.000274
219.0769	0.000422
221.7503	-0.000317
224.4262	0.000317
227.1046	0.001013
229.7855	-0.001225
232.4688	-0.001394
235.1546	0.000127
237.8429	0.000000
240.5337	0.000021
243.2269	-0.000401
245.9225	-0.000338
248.6206	0.000338
251.3212	0.000338
254.0242	0.001499
256.7296	0.000845
259.4375	0.001119
262.1477	0.000676
264.8604	0.000106
267.5755	0.001098
270.2931	0.000211
273.0130	0.000718
275.7353	0.001710
278.4600	0.000084
281.1871	0.000021
283.9166	0.000274
286.6484	0.001203
289.3827	-0.000380
292.1193	0.000655
294.8582	-0.000148
297.5995	0.001140
300.3432	0.000084
303.0892	0.000211
305.8376	0.000148
308.5883	0.000296
311.3413	-0.000232
314.0967	-0.000465
316.8543	-0.000401
319.6143	-0.000106
322.3766	0.000465
325.1412	0.000929
327.9082	0.000781
330.6774	-0.000422
333.4489	0.001499
336.2227	-0.001182
338.9987	0.000612
341.7771	-0.001182
344.5577	0.000845
347.3406	0.000338
350.1257	0.000000
352.9131	0.001225
355.7027	-0.000760
358.4946	0.000739
361.2888	0.002344
364.0851	0.000000
366.8837	0.000106
369.6845	0.001119
372.4876	-0.001056
375.2928	0.001309
378.1003	0.000633
380.9100	-0.001140
383.7219	0.000760
386.5359	0.001267
389.3522	0.000802
392.1706	0.003399
394.9912	0.004793
397.8140	0.006186
400.6390	0.007897
403.4661	0.010430
406.2954	0.014526
409.1269	0.014463
411.9605	0.014970
414.7962	0.017440
417.6341	0.017799
420.4741	0.021578
423.3162	0.024133
426.1605	0.022001
429.0068	0.022149
431.8553	0.022866
434.7059	0.024619
437.5586	0.023795
440.4135	0.023817
443.2703	0.027406
446.1293	0.026540
448.9904	0.025442
451.8535	0.022507
454.7188	0.019277
457.5860	0.019235
460.4554	0.017039
463.3268	0.015371
466.2003	0.016574
469.0758	0.013027
471.9533	0.008593
474.8329	0.010304
477.7145	0.006609
480.5982	0.007327
483.4838	0.006588
486.3715	0.017250
489.2612	0.004202
492.1529	0.004497
495.0466	0.003653
497.9423	0.004328
500.8400	0.002618
503.7397	0.003758
506.6414	0.003674
509.5450	0.004518
512.4506	0.003674
515.3582	0.005215
518.2677	0.001626
521.1792	0.002681
524.0927	0.003273
527.0081	0.003188
529.9254	0.006778
532.8447	0.005110
535.7659	0.007728
538.6890	0.009353
541.6140	0.011866
544.5410	0.013534
547.4699	0.019805
550.4007	0.018770
553.3333	0.021388
556.2679	0.026582
559.2044	0.026012
562.1427	0.032157
565.0829	0.040475
568.0250	0.054812
570.9690	0.108294
573.9149	0.152886
576.8626	0.176724
579.8121	0.206410
582.7635	0.256851
585.7167	0.234133
588.6718	0.198492
591.6288	0.130252
594.5875	0.167138
597.5481	0.148938
600.5105	0.187218
603.4747	0.181981
606.4407	0.165914
609.4085	0.135404
612.3781	0.129218
615.3495	0.128394
618.3227	0.109582
621.2977	0.077087
624.2745	0.088003
627.2530	0.070352
630.2333	0.060133
633.2154	0.046810
636.1992	0.043030
639.1848	0.039927
642.1721	0.031782
645.1612	0.026024
648.1520	0.027520
651.1445	0.027055
654.1388	0.033065
657.1348	0.870916
660.1325	0.061946
663.1319	0.021835
666.1330	0.023776
669.1359	0.022233
672.1404	0.032325
675.1466	0.027807
678.1545	0.028588
681.1641	0.034521
684.1754	0.032769
687.1883	0.043621
690.2029	0.033635
693.2192	0.038491
696.2371	0.030552
699.2567	0.036232
702.2779	0.027828
705.3008	0.025020
708.3253	0.039040
711.3514	0.032917
714.3791	0.034585
717.4085	0.027469
720.4395	0.027892
723.4721	0.027617
726.5063	0.033635
729.5421	0.037773
732.5795	0.041975
735.6185	0.047105
738.6591	0.040328
741.7013	0.033867
744.7450	0.030742
747.7903	0.031734
750.8372	0.040391
753.8856	0.040454
756.9356	0.049913
759.9872	0.059457
763.0403	0.050526
766.0949	0.050103
769.1510	0.049322
772.2087	0.038681
775.2679	0.031460
778.3287	0.026160
781.3909	0.034162
784.4547	0.029581
787.5199	0.029961
790.5867	0.024724
793.6550	0.022740
796.7247	0.021431
799.7959	0.020586
802.8686	0.017356
805.9428	0.019615
809.0185	0.022592
812.0956	0.014780
815.1742	0.015920
818.2542	0.014062
821.3357	0.015582
824.4186	0.011760
827.5029	0.014991
830.5887	0.010092
833.6759	0.009691
836.7646	0.007179
839.8546	0.007284
842.9461	0.004540
846.0390	0.005827
849.1333	0.005025
852.2289	0.005553
855.3260	0.013302
858.4245	0.010663
861.5243	0.004561
864.6255	0.006651
867.7281	0.005616
870.8321	0.005785
873.9374	0.005131
877.0441	0.005680
880.1521	0.007073
883.2615	0.007031
886.3722	0.006186
889.4843	0.002893
892.5977	0.005110
895.7124	0.004371
898.8284	0.004497
901.9458	0.004624
905.0644	0.004835
908.1844	0.003463
911.3057	0.004518
914.4283	0.004054
917.5521	0.005131
920.6773	0.003294
923.8037	0.003442
926.9314	0.000697
930.0604	0.003252
933.1906	0.002386
936.3221	0.002787
939.4549	0.002154
942.5889	0.000422
945.7241	0.001035
948.8606	0.000718
951.9983	0.002745
955.1373	0.000127
958.2775	0.000359
961.4189	0.001731
964.5615	-0.000465
967.7053	0.001035
970.8504	0.001415
973.9966	0.001394
977.1440	0.001499
980.2926	0.001351
983.4424	-0.000190
986.5934	0.000021
989.7456	0.001605
992.8989	-0.000253
996.0534	0.001182
999.2090	-0.000486
1002.37	-0.000359
1005.52	0.002196
1008.68	0.000042
1011.84	0.002301
1015	0.000169
1018.17	-0.001056
1021.33	0.000401
1023.03	-0.000528

File: spectrum_2025-06-19_11-54-11.txt
# Wavelength (nm)	Intensity (a.u.)
197.7802	0.000549
200.4334	0.001013
203.0892	0.001330
205.7475	0.001498
208.4084	0.001541
211.0718	0.000359
213.7376	0.001498
216.4060	0.000211
219.0769	0.001055
221.7503	0.001034
224.4262	0.000612
227.1046	0.000253
229.7855	0.000528
232.4688	0.000485
235.1546	0.000929
237.8429	-0.000084
240.5337	0.001773
243.2269	0.001330
245.9225	0.001667
248.6206	-0.000549
251.3212	0.001034
254.0242	-0.000591
256.7296	0.001203
259.4375	-0.000633
262.1477	0.000127
264.8604	-0.001372
267.5755	0.001203
270.2931	-0.000106
273.0130	0.000886
275.7353	0.001182
278.4600	0.001393
281.1871	0.001456
283.9166	0.000971
286.6484	0.001731
289.3827	0.001097
292.1193	0.001287
294.8582	0.001604
297.5995	0.001097
300.3432	0.001182
303.0892	0.000359
305.8376	0.000148
308.5883	0.000422
311.3413	0.000612
314.0967	0.001182
316.8543	0.001625
319.6143	0.000570
322.3766	0.001604
325.1412	0.001034
327.9082	0.000781
330.6774	0.000127
333.4489	0.000654
336.2227	-0.001308
338.9987	0.002068
341.7771	0.001372
344.5577	0.001034
347.3406	0.000654
350.1257	0.001161
352.9131	0.001097
355.7027	0.001456
358.4946	0.001034
361.2888	0.000950
364.0851	-0.000106
366.8837	0.001604
369.6845	0.001182
372.4876	0.000232
375.2928	-0.000169
378.1003	0.000633
380.9100	0.000718
383.7219	0.000232
386.5359	0.001899
389.3522	0.002427
392.1706	0.000907
394.9912	0.004770
397.8140	0.004685
400.6390	0.005466
403.4661	0.008252
406.2954	0.010362
409.1269	0.010890
411.9605	0.013444
414.7962	0.014689
417.6341	0.016462
420.4741	0.018931
423.3162	0.019691
426.1605	0.020155
429.0068	0.021126
431.8553	0.020239
434.7059	0.020450
437.5586	0.022097
440.4135	0.023616
443.2703	0.027478
446.1293	0.025389
448.9904	0.023785
451.8535	0.023067
454.7188	0.020282
457.5860	0.016947
460.4554	0.017179
463.3268	0.014879
466.2003	0.014879
469.0758	0.010531
471.9533	0.009307
474.8329	0.009370
477.7145	0.007598
480.5982	0.009687
483.4838	0.006711
486.3715	0.017580
489.2612	0.004770
492.1529	0.004094
495.0466	0.004453
497.9423	0.005656
500.8400	0.002490
503.7397	0.002744
506.6414	0.003187
509.5450	0.002891
512.4506	0.003693
515.3582	0.003313
518.2677	0.004917
521.1792	0.004432
524.0927	0.005487
527.0081	0.005529
529.9254	0.005487
532.8447	0.005382
535.7659	0.008780
538.6890	0.009455
541.6140	0.012979
544.5410	0.015997
547.4699	0.016757
550.4007	0.017770
553.3333	0.022160
556.2679	0.026887
559.2044	0.023722
562.1427	0.033746
565.0829	0.037819
568.0250	0.054408
570.9690	0.111221
573.9149	0.149906
576.8626	0.175211
579.8121	0.202815
582.7635	0.253952
585.7167	0.228246
588.6718	0.193487
591.6288	0.130131
594.5875	0.167803
597.5481	0.153051
600.5105	0.180571
603.4747	0.186079
606.4407	0.158327
609.4085	0.132453
612.3781	0.131651
615.3495	0.126628
618.3227	0.110968
621.2977	0.072157
624.2745	0.083469
627.2530	0.070996
630.2333	0.062026
633.2154	0.044531
636.1992	0.044890
639.1848	0.040774
642.1721	0.032300
645.1612	0.027941
648.1520	0.029154
651.1445	0.028768
654.1388	0.034778
657.1348	0.865127
660.1325	0.061133
663.1319	0.022562
666.1330	0.026222
669.1359	0.022286
672.1404	0.032670
675.1466	0.027943
678.1545	0.027542
681.1641	0.033746
684.1754	0.032396
687.1883	0.044172
690.2029	0.036047
693.2192	0.038009
696.2371	0.029420
699.2567	0.035350
702.2779	0.031193
705.3008	0.026001
708.3253	0.038094
711.3514	0.031784
714.3791	0.033788
717.4085	0.027415
720.4395	0.028787
723.4721	0.029589
726.5063	0.034274
729.5421	0.037883
732.5795	0.040584
735.6185	0.045164
738.6591	0.041661
741.7013	0.033324
744.7450	0.031488
747.7903	0.033409
750.8372	0.039761
753.8856	0.043961
756.9356	0.050482
759.9872	0.062512
763.0403	0.051242
766.0949	0.051960
769.1510	0.048878
772.2087	0.040352
775.2679	0.030370
778.3287	0.026803
781.3909	0.034928
784.4547	0.031889
787.5199	0.030053
790.5867	0.026170
793.6550	0.024861
796.7247	0.023637
799.7959	0.023426
802.8686	0.018952
805.9428	0.023257
809.0185	0.024101
812.0956	0.018403
815.1742	0.016293
818.2542	0.013359
821.3357	0.016799
824.4186	0.011797
827.5029	0.014203
830.5887	0.010911
833.6759	0.010911
836.7646	0.008484
839.8546	0.008062
842.9461	0.005973
846.0390	0.007197
849.1333	0.005614
852.2289	0.005783
855.3260	0.013591
858.4245	0.011291
861.5243	0.004791
864.6255	0.006943
867.7281	0.005086
870.8321	0.004622
873.9374	0.005740
877.0441	0.005909
880.1521	0.007830
883.2615	0.007619
886.3722	0.007239
889.4843	0.005107
892.5977	0.004917
895.7124	0.005213
898.8284	0.005529
901.9458	0.006437
905.0644	0.004601
908.1844	0.005023
911.3057	0.003651
914.4283	0.003524
917.5521	0.005719
920.6773	0.004516
923.8037	0.003250
926.9314	0.002258
930.0604	0.003672
933.1906	0.001731
936.3221	0.002047
939.4549	0.001688
942.5889	0.002089
945.7241	0.001899
948.8606	-0.000633
951.9983	0.002089
955.1373	0.000907
958.2775	0.001709
961.4189	0.000253
964.5615	0.001541
967.7053	-0.001055
970.8504	0.000612
973.9966	0.001266
977.1440	0.000971
980.2926	0.001541
983.4424	0.001287
986.5934	0.000886
989.7456	0.000274
992.8989	0.001963
996.0534	0.001921
999.2090	-0.000148
1002.37	0.001667
1005.52	0.000317
1008.68	0.001266
1011.84	0.000570
1015	0.000528
1018.17	0.001477
1021.33	0.000507
1023.03	-0.000443

File: spectrum_2025-06-19_12-14-38.txt
# Wavelength (nm)	Intensity (a.u.)
197.7802	0.000778
200.4334	-0.000827
203.0892	0.000967
205.7475	0.000482
208.4084	0.000398
211.0718	0.000482
213.7376	0.001031
216.4060	0.000292
219.0769	0.001643
221.7503	0.000060
224.4262	0.000693
227.1046	0.001157
229.7855	0.000229
232.4688	0.000355
235.1546	0.001115
237.8429	0.001432
240.5337	0.000841
243.2269	0.000208
245.9225	0.000756
248.6206	0.000482
251.3212	0.001601
254.0242	0.001369
256.7296	0.002065
259.4375	-0.000721
262.1477	0.000503
264.8604	-0.000151
267.5755	0.000123
270.2931	-0.000088
273.0130	0.000799
275.7353	0.000102
278.4600	0.000799
281.1871	-0.000953
283.9166	-0.000341
286.6484	0.000440
289.3827	-0.000299
292.1193	-0.000405
294.8582	0.000609
297.5995	-0.001101
300.3432	0.001347
303.0892	0.001432
305.8376	0.000946
308.5883	-0.000130
311.3413	0.001179
314.0967	0.000229
316.8543	0.000714
319.6143	-0.000172
322.3766	0.001727
325.1412	0.000208
327.9082	0.001622
330.6774	0.000440
333.4489	-0.000447
336.2227	0.001495
338.9987	-0.000362
341.7771	-0.000151
344.5577	0.001242
347.3406	-0.000004
350.1257	0.001875
352.9131	0.000967
355.7027	0.000735
358.4946	0.001221
361.2888	0.000714
364.0851	-0.000975
366.8837	0.000799
369.6845	0.000018
372.4876	0.000904
375.2928	-0.000130
378.1003	0.000778
380.9100	-0.000700
383.7219	0.000714
386.5359	0.001643
389.3522	0.000334
392.1706	0.001622
394.9912	0.002466
397.8140	0.002846
400.6390	0.005210
403.4661	0.006392
406.2954	0.006878
409.1269	0.010825
411.9605	0.010530
414.7962	0.011712
417.6341	0.013569
420.4741	0.015131
423.3162	0.019248
426.1605	0.018994
429.0068	0.018530
431.8553	0.020303
434.7059	0.020092
437.5586	0.021633
440.4135	0.020493
443.2703	0.024863
446.1293	0.022182
448.9904	0.022688
451.8535	0.020767
454.7188	0.018551
457.5860	0.018108
460.4554	0.015364
463.3268	0.014372
466.2003	0.014920
469.0758	0.012092
471.9533	0.008461
474.8329	0.009770
477.7145	0.006287
480.5982	0.007089
483.4838	0.006920
486.3715	0.015659
489.2612	0.004514
492.1529	0.002762
495.0466	0.004070
497.9423	0.004176
500.8400	0.005063
503.7397	0.002888
506.6414	0.001727
509.5450	0.003057
512.4506	0.002466
515.3582	0.003395
518.2677	0.003247
521.1792	0.004282
524.0927	0.004155
527.0081	0.003332
529.9254	0.005147
532.8447	0.005316
535.7659	0.008588
538.6890	0.008651
541.6140	0.012387
544.5410	0.014414
547.4699	0.016567
550.4007	0.015912
553.3333	0.019438
556.2679	0.026910
559.2044	0.023469
562.1427	0.033939
565.0829	0.039807
568.0250	0.056293
570.9690	0.106532
573.9149	0.144464
576.8626	0.171125
579.8121	0.202471
582.7635	0.256573
585.7167	0.226809
588.6718	0.192656
591.6288	0.127746
594.5875	0.167515
597.5481	0.147124
600.5105	0.178935
603.4747	0.186091
606.4407	0.160887
609.4085	0.135451
612.3781	0.128190
615.3495	0.128063
618.3227	0.110332
621.2977	0.074679
624.2745	0.085571
627.2530	0.070162
630.2333	0.061275
633.2154	0.045275
636.1992	0.043164
639.1848	0.041095
642.1721	0.031238
645.1612	0.026956
648.1520	0.029485
651.1445	0.028088
654.1388	0.030942
657.1348	0.866051
660.1325	0.061460
663.1319	0.022121
666.1330	0.023746
669.1359	0.022182
672.1404	0.032018
675.1466	0.027016
678.1545	0.027776
681.1641	0.033390
684.1754	0.033897
687.1883	0.042488
690.2029	0.034763
693.2192	0.039132
696.2371	0.029950
699.2567	0.035227
702.2779	0.030161
705.3008	0.024082
708.3253	0.037063
711.3514	0.033602
714.3791	0.033834
717.4085	0.028388
720.4395	0.027691
723.4721	0.029802
726.5063	0.036641
729.5421	0.036113
732.5795	0.039301
735.6185	0.048293
738.6591	0.039871
741.7013	0.034995
744.7450	0.029084
747.7903	0.031997
750.8372	0.038815
753.8856	0.044325
756.9356	0.049792
759.9872	0.064125
763.0403	0.048694
766.0949	0.050404
769.1510	0.049855
772.2087	0.042383
775.2679	0.031216
778.3287	0.026699
781.3909	0.036515
784.4547	0.030182
787.5199	0.030667
790.5867	0.023786
793.6550	0.025116
796.7247	0.022329
799.7959	0.020979
802.8686	0.016672
805.9428	0.017897
809.0185	0.024060
812.0956	0.017918
815.1742	0.017854
818.2542	0.013696
821.3357	0.015786
824.4186	0.010825
827.5029	0.014920
830.5887	0.010065
833.6759	0.007427
836.7646	0.008778
839.8546	0.007701
842.9461	0.006751
846.0390	0.007300
849.1333	0.004662
852.2289	0.005717
855.3260	0.012366
858.4245	0.010192
861.5243	0.007406
864.6255	0.006076
867.7281	0.006456
870.8321	0.006076
873.9374	0.003268
877.0441	0.004429
880.1521	0.008609
883.2615	0.006730
886.3722	0.005907
889.4843	0.004577
892.5977	0.005274
895.7124	0.004450
898.8284	0.005928
901.9458	0.003775
905.0644	0.005041
908.1844	0.004429
911.3057	0.004746
914.4283	0.003184
917.5521	0.004788
920.6773	0.004134
923.8037	0.004746
926.9314	0.002888
930.0604	0.002888
933.1906	0.003163
936.3221	0.003564
939.4549	0.002677
942.5889	0.000714
945.7241	0.000398
948.8606	0.001432
951.9983	0.001284
955.1373	0.001537
958.2775	0.001875
961.4189	0.001347
964.5615	0.000545
967.7053	0.002213
970.8504	0.001622
973.9966	0.001031
977.1440	0.001200
980.2926	0.001664
983.4424	0.002783
986.5934	0.001031
989.7456	0.000313
992.8989	0.000313
996.0534	0.000735
999.2090	0.000630
1002.37	-0.000362
1005.52	-0.000468
1008.68	0.001284
1011.84	0.000018
1015	0.000778
1018.17	0.000735
1021.33	-0.001312
1023.03	0.000461