Folder: Auto_Polymerization/Auto_Polymerization/Spectra/MRG-061-F-4_spectra_while_stopped_with_alu_foil

Note: README.md
# Auto_Polymerization

[![Python 3.10](https://img.shields.io/badge/python-3.10-blue.svg)](https://www.python.org/downloads/)
[![License: MIT](https://img.shields.io/badge/License-MIT-yellow.svg)](https://opensource.org/licenses/MIT)

This repository contains the **Auto_Polymerization platform** for automated polymer synthesis and characterization.

## ğŸš€ Quick Start

### Device Testing

For testing real devices in your Auto_Polymerization platform, see the demo folder:

```bash
cd Auto_Polymerization/demo
python demo_device_test.py
```

This will guide you through testing individual devices with safe parameters.

For comprehensive device testing:

```bash
cd Auto_Polymerization/demo
python device_test_controller.py
```

ğŸ“– See [`Auto_Polymerization/demo/DEVICE_TESTING_README.md`](Auto_Polymerization/demo/DEVICE_TESTING_README.md) for detailed documentation.

## ğŸ“¦ Required Packages and Setup

### ğŸ”§ Hardware Drivers

Install drivers for the devices used in this project:

- **[Thorlabs CCS200 Spectrometer](https://www.thorlabs.com/thorproduct.cfm?partnumber=CCS200#ad-image-0)** - UV-VIS spectroscopy
- **[Thorlabs upLED Controller](https://www.thorlabs.com/thorproduct.cfm?partnumber=UPLED)** - LED control

### ğŸ Python Environment

**Python Version:** 3.10

Install the linear actuator and valves control package from the local source in editable mode:

```bash
pip install -e src/linear_actuator_and_valves/
```

### ğŸ“š Core Dependencies

```bash
pip install scipy numpy pandas matplotlib pyserial nmrglue requests pyyaml medusa-sdl
```

### ğŸ”¬ MatterLab Packages

Install from [MatterLab devices repository](https://gitlab.com/aspuru-guzik-group/self-driving-lab/devices):

#### Easy Installation (if available):
```bash
pip install matterlab_hotplates
pip install matterlab_pumps
pip install matterlab_serial_device
```

#### Manual Installation:

**Hotplates, Pumps, Serial Device:**

https://gitlab.com/aspuru-guzik-group/self-driving-lab/devices



**Spectrometers:**

- **NMR (Nanalysis Benchtop):**

  git clone https://gitlab.com/aspuru-guzik-group/self-driving-lab/devices/nmr
  cd nmr
  git checkout develop
  pip install -e .


- **UV-VIS (Thorlabs CCS200):**

  git clone https://gitlab.com/aspuru-guzik-group/self-driving-lab/devices/spectrometer
  cd spectrometer
  git checkout develop
  pip install -e .


> **Note:** If access is not public, contact Han Hao at University of Toronto.

### âš™ï¸ Configuration

**CSS200 Spectrometer DLL:**
Potentially you need to update the `DLL_FILE` value in `ccs_spectrometer.py` in the matterlab package:
The correct file path is typically: 
DLL_FILE = Path(r"C:\Program Files\IVI Foundation\VISA\Win64\Bin\TLCCS_64.dll")
#

**Arduino Setup:**
1. Install Arduino IDE on your PC
2. Upload the Arduino code from `users/setup/` to your Arduino board
3. An overview of the hardware connections of the GPIO pins is given in "Arduino_contacts_overview_2025_06_27_bb.jpg"
## âš ï¸ Important Notes



## ğŸ“ Project Struc

File: spectrum_2025-06-20_08-30-50.txt
# Wavelength (nm)	Intensity (a.u.)
197.7802	0.000232
200.4334	-0.000063
203.0892	0.000907
205.7475	0.000422
208.4084	0.000443
211.0718	0.000042
213.7376	0.000654
216.4060	0.000190
219.0769	0.000401
221.7503	-0.000042
224.4262	-0.000211
227.1046	0.000949
229.7855	0.002277
232.4688	0.000822
235.1546	-0.000422
237.8429	-0.000337
240.5337	0.000611
243.2269	0.000253
245.9225	0.001118
248.6206	0.000865
251.3212	0.000380
254.0242	0.001792
256.7296	0.001434
259.4375	-0.000380
262.1477	0.000422
264.8604	-0.000337
267.5755	0.000611
270.2931	-0.000021
273.0130	0.002868
275.7353	0.001476
278.4600	-0.000211
281.1871	-0.000042
283.9166	0.001075
286.6484	0.002024
289.3827	0.001518
292.1193	-0.000274
294.8582	0.000633
297.5995	0.000506
300.3432	0.001096
303.0892	-0.000738
305.8376	0.000464
308.5883	-0.000148
311.3413	0.001139
314.0967	0.000000
316.8543	0.000654
319.6143	0.000443
322.3766	0.000211
325.1412	0.002024
327.9082	0.001181
330.6774	0.000190
333.4489	0.001371
336.2227	0.000506
338.9987	0.002130
341.7771	0.000527
344.5577	0.001096
347.3406	-0.000485
350.1257	0.000190
352.9131	0.001139
355.7027	0.001265
358.4946	0.001792
361.2888	0.000949
364.0851	0.000548
366.8837	0.001961
369.6845	0.001328
372.4876	-0.000127
375.2928	0.001096
378.1003	0.001033
380.9100	0.000822
383.7219	0.001771
386.5359	0.000654
389.3522	0.002868
392.1706	0.004428
394.9912	0.008497
397.8140	0.010690
400.6390	0.014317
403.4661	0.015983
406.2954	0.019103
409.1269	0.022224
411.9605	0.019609
414.7962	0.022435
417.6341	0.023700
420.4741	0.025935
423.3162	0.026842
426.1605	0.023679
429.0068	0.022351
431.8553	0.025071
434.7059	0.026989
437.5586	0.025640
440.4135	0.023531
443.2703	0.026146
446.1293	0.023173
448.9904	0.021697
451.8535	0.020643
454.7188	0.017353
457.5860	0.017353
460.4554	0.015456
463.3268	0.014992
466.2003	0.015603
469.0758	0.009594
471.9533	0.008772
474.8329	0.006979
477.7145	0.006600
480.5982	0.007232
483.4838	0.005672
486.3715	0.017627
489.2612	0.005545
492.1529	0.003711
495.0466	0.003838
497.9423	0.002910
500.8400	0.003353
503.7397	0.003859
506.6414	0.002804
509.5450	0.002931
512.4506	0.001856
515.3582	0.003690
518.2677	0.003669
521.1792	0.002678
524.0927	0.004112
527.0081	0.003922
529.9254	0.004175
532.8447	0.004681
535.7659	0.007865
538.6890	0.007401
541.6140	0.010838
544.5410	0.012946
547.4699	0.014191
550.4007	0.017480
553.3333	0.017606
556.2679	0.021823
559.2044	0.021781
562.1427	0.028465
565.0829	0.034095
568.0250	0.047611
570.9690	0.091153
573.9149	0.128579
576.8626	0.147704
579.8121	0.166976
582.7635	0.239088
585.7167	0.197845
588.6718	0.164066
591.6288	0.107093
594.5875	0.142538
597.5481	0.121052
600.5105	0.153797
603.4747	0.151288
606.4407	0.141020
609.4085	0.115738
612.3781	0.110889
615.3495	0.101569
618.3227	0.092544
621.2977	0.066925
624.2745	0.071796
627.2530	0.056446
630.2333	0.052545
633.2154	0.041180
636.1992	0.036119
639.1848	0.035634
642.1721	0.026106
645.1612	0.022113
648.1520	0.023096
651.1445	0.025210
654.1388	0.026140
657.1348	0.896265
660.1325	0.057409
663.1319	0.019156
666.1330	0.020409
669.1359	0.017627
672.1404	0.025260
675.1466	0.020369
678.1545	0.024206
681.1641	0.027032
684.1754	0.025577
687.1883	0.035381
690.2029	0.028444
693.2192	0.030764
696.2371	0.025260
699.2567	0.030258
702.2779	0.025408
705.3008	0.019694
708.3253	0.032851
711.3514	0.029393
714.3791	0.028929
717.4085	0.023911
720.4395	0.025218
723.4721	0.021085
726.5063	0.029246
729.5421	0.026800
732.5795	0.034812
735.6185	0.042445
738.6591	0.032957
741.7013	0.028191
744.7450	0.023827
747.7903	0.025661
750.8372	0.033420
753.8856	0.034918
756.9356	0.041201
759.9872	0.050668
763.0403	0.040716
766.0949	0.045144
769.1510	0.039725
772.2087	0.035866
775.2679	0.026336
778.3287	0.021191
781.3909	0.027369
784.4547	0.027706
787.5199	0.021718
790.5867	0.019694
793.6550	0.019125
796.7247	0.021444
799.7959	0.017606
802.8686	0.014844
805.9428	0.014380
809.0185	0.019272
812.0956	0.013790
815.1742	0.015076
818.2542	0.011428
821.3357	0.012398
824.4186	0.010564
827.5029	0.010754
830.5887	0.009868
833.6759	0.006790
836.7646	0.007717
839.8546	0.007190
842.9461	0.006052
846.0390	0.004576
849.1333	0.005714
852.2289	0.005082
855.3260	0.011702
858.4245	0.008645
861.5243	0.007570
864.6255	0.004618
867.7281	0.003606
870.8321	0.004091
873.9374	0.005250
877.0441	0.004027
880.1521	0.005967
883.2615	0.005799
886.3722	0.007169
889.4843	0.003416
892.5977	0.005271
895.7124	0.004765
898.8284	0.004301
901.9458	0.004069
905.0644	0.004238
908.1844	0.003985
911.3057	0.002615
914.4283	0.003732
917.5521	0.004681
920.6773	0.003542
923.8037	0.002615
926.9314	0.002488
930.0604	0.003100
933.1906	0.001602
936.3221	0.002383
939.4549	0.002003
942.5889	0.001708
945.7241	0.001877
948.8606	0.001096
951.9983	0.002193
955.1373	0.001244
958.2775	0.002594
961.4189	0.001307
964.5615	0.000042
967.7053	0.001877
970.8504	-0.000253
973.9966	0.002847
977.1440	0.001434
980.2926	0.001602
983.4424	0.000717
986.5934	0.001645
989.7456	-0.000105
992.8989	0.001223
996.0534	0.000380
999.2090	0.003247
1002.37	0.001054
1005.52	-0.000443
1008.68	0.001054
1011.84	0.001160
1015	-0.000401
1018.17	0.000675
1021.33	0.000865
1023.03	0.000928

File: spectrum_2025-06-20_08-35-57.txt
# Wavelength (nm)	Intensity (a.u.)
197.7802	0.001302
200.4334	0.000248
203.0892	0.001787
205.7475	0.000564
208.4084	-0.000300
211.0718	0.000163
213.7376	0.001344
216.4060	0.000206
219.0769	0.000733
221.7503	-0.000511
224.4262	0.000501
227.1046	0.000248
229.7855	0.000121
232.4688	0.000923
235.1546	0.000185
237.8429	0.000227
240.5337	0.001408
243.2269	-0.000448
245.9225	-0.000258
248.6206	0.002272
251.3212	0.000733
254.0242	0.000522
256.7296	0.001703
259.4375	0.000775
262.1477	0.001513
264.8604	0.000627
267.5755	0.001155
270.2931	0.000859
273.0130	0.001028
275.7353	0.000923
278.4600	0.000416
281.1871	-0.000300
283.9166	0.001260
286.6484	-0.000153
289.3827	0.000923
292.1193	-0.000427
294.8582	0.001155
297.5995	-0.000132
300.3432	0.000901
303.0892	0.000880
305.8376	0.000374
308.5883	-0.000047
311.3413	0.001661
314.0967	0.000965
316.8543	-0.000069
319.6143	-0.000743
322.3766	0.001450
325.1412	0.000227
327.9082	0.000480
330.6774	-0.000026
333.4489	0.000522
336.2227	0.001386
338.9987	0.001302
341.7771	0.000670
344.5577	0.000100
347.3406	0.000859
350.1257	-0.000069
352.9131	0.001534
355.7027	0.000880
358.4946	0.000923
361.2888	0.001450
364.0851	-0.000617
366.8837	-0.000174
369.6845	0.001133
372.4876	0.001028
375.2928	0.001197
378.1003	0.002103
380.9100	0.001302
383.7219	0.000311
386.5359	0.001344
389.3522	0.003137
392.1706	0.005056
394.9912	0.007164
397.8140	0.009484
400.6390	0.012520
403.4661	0.014734
406.2954	0.018129
409.1269	0.020786
411.9605	0.020196
414.7962	0.020533
417.6341	0.025257
420.4741	0.024498
423.3162	0.027387
426.1605	0.024456
429.0068	0.025278
431.8553	0.025151
434.7059	0.024941
437.5586	0.024856
440.4135	0.023296
443.2703	0.026438
446.1293	0.024582
448.9904	0.023211
451.8535	0.018087
454.7188	0.018193
457.5860	0.016569
460.4554	0.016569
463.3268	0.013743
466.2003	0.013469
469.0758	0.011698
471.9533	0.007776
474.8329	0.007860
477.7145	0.006342
480.5982	0.004507
483.4838	0.006068
486.3715	0.014018
489.2612	0.004233
492.1529	0.004950
495.0466	0.003348
497.9423	0.003284
500.8400	0.002820
503.7397	0.003411
506.6414	0.003263
509.5450	0.002715
512.4506	0.003200
515.3582	0.002694
518.2677	0.003432
521.1792	0.004318
524.0927	0.004233
527.0081	0.003031
529.9254	0.004739
532.8447	0.003095
535.7659	0.007586
538.6890	0.008914
541.6140	0.011002
544.5410	0.011888
547.4699	0.014292
550.4007	0.016885
553.3333	0.018846
556.2679	0.020913
559.2044	0.021799
562.1427	0.028905
565.0829	0.033565
568.0250	0.046555
570.9690	0.094506
573.9149	0.130797
576.8626	0.154414
579.8121	0.176935
582.7635	0.218645
585.7167	0.200995
588.6718	0.164409
591.6288	0.108571
594.5875	0.144714
597.5481	0.125715
600.5105	0.153276
603.4747	0.158336
606.4407	0.136596
609.4085	0.111060
612.3781	0.108023
615.3495	0.105556
618.3227	0.086957
621.2977	0.062328
624.2745	0.073841
627.2530	0.060029
630.2333	0.050350
633.2154	0.037192
636.1992	0.037023
639.1848	0.033164
642.1721	0.026017
645.1612	0.020877
648.1520	0.025702
651.1445	0.023632
654.1388	0.026562
657.1348	0.723690
660.1325	0.038447
663.1319	0.019467
666.1330	0.020258
669.1359	0.020133
672.1404	0.028462
675.1466	0.022052
678.1545	0.024561
681.1641	0.027829
684.1754	0.028125
687.1883	0.035568
690.2029	0.030297
693.2192	0.031836
696.2371	0.025004
699.2567	0.029854
702.2779	0.023486
705.3008	0.022368
708.3253	0.030571
711.3514	0.027028
714.3791	0.029622
717.4085	0.023718
720.4395	0.023211
723.4721	0.026754
726.5063	0.026691
729.5421	0.027872
732.5795	0.031688
735.6185	0.040165
738.6591	0.035758
741.7013	0.028968
744.7450	0.025468
747.7903	0.027450
750.8372	0.034683
753.8856	0.034071
756.9356	0.043581
759.9872	0.051637
763.0403	0.040756
766.0949	0.042337
769.1510	0.040081
772.2087	0.032110
775.2679	0.025194
778.3287	0.021546
781.3909	0.028968
784.4547	0.026522
787.5199	0.024434
790.5867	0.022853
793.6550	0.019859
796.7247	0.019226
799.7959	0.017286
802.8686	0.014734
805.9428	0.018024
809.0185	0.018973
812.0956	0.013575
815.1742	0.014418
818.2542	0.011761
821.3357	0.013807
824.4186	0.009653
827.5029	0.011508
830.5887	0.009484
833.6759	0.008240
836.7646	0.005773
839.8546	0.006215
842.9461	0.005330
846.0390	0.005351
849.1333	0.004592
852.2289	0.005688
855.3260	0.011635
858.4245	0.008577
861.5243	0.005140
864.6255	0.005309
867.7281	0.004592
870.8321	0.005224
873.9374	0.003031
877.0441	0.005140
880.1521	0.007481
883.2615	0.004634
886.3722	0.005878
889.4843	0.004275
892.5977	0.005688
895.7124	0.004022
898.8284	0.003411
901.9458	0.003601
905.0644	0.004170
908.1844	0.003095
911.3057	0.005266
914.4283	0.002399
917.5521	0.003284
920.6773	0.003073
923.8037	0.002378
926.9314	0.002567
930.0604	0.002399
933.1906	0.000775
936.3221	0.002146
939.4549	0.000269
942.5889	0.001281
945.7241	0.000395
948.8606	0.001239
951.9983	0.001998
955.1373	0.000733
958.2775	0.001176
961.4189	0.000121
964.5615	0.001155
967.7053	0.001070
970.8504	0.002820
973.9966	0.000923
977.1440	0.000480
980.2926	0.000775
983.4424	0.001998
986.5934	-0.000216
989.7456	0.000163
992.8989	-0.000111
996.0534	0.002525
999.2090	0.001176
1002.37	0.001260
1005.52	0.000648
1008.68	0.001239
1011.84	0.000880
1015	-0.001060
1018.17	0.001365
1021.33	-0.000090
1023.03	0.001408

File: spectrum_2025-06-20_08-51-19.txt
# Wavelength (nm)	Intensity (a.u.)
197.7802	0.000158
200.4334	0.000685
203.0892	-0.000475
205.7475	-0.000116
208.4084	-0.001234
211.0718	-0.000791
213.7376	0.000538
216.4060	0.000875
219.0769	-0.000432
221.7503	0.000158
224.4262	0.000728
227.1046	0.001234
229.7855	0.001128
232.4688	0.001128
235.1546	-0.000264
237.8429	0.000538
240.5337	-0.000137
243.2269	0.000243
245.9225	-0.001171
248.6206	0.000390
251.3212	-0.000074
254.0242	-0.000095
256.7296	0.001529
259.4375	-0.001065
262.1477	0.001128
264.8604	0.000875
267.5755	0.000622
270.2931	0.000622
273.0130	0.000981
275.7353	-0.000221
278.4600	-0.000812
281.1871	0.000453
283.9166	-0.000622
286.6484	-0.000601
289.3827	0.000179
292.1193	0.000221
294.8582	-0.001023
297.5995	0.000664
300.3432	0.000939
303.0892	0.000622
305.8376	-0.000390
308.5883	-0.000580
311.3413	0.000939
314.0967	0.001044
316.8543	0.000411
319.6143	-0.000137
322.3766	0.001213
325.1412	0.000875
327.9082	-0.000601
330.6774	-0.000643
333.4489	0.000432
336.2227	-0.001065
338.9987	0.001339
341.7771	0.000601
344.5577	0.000011
347.3406	-0.000664
350.1257	0.000264
352.9131	0.000622
355.7027	0.001065
358.4946	0.000200
361.2888	0.001149
364.0851	0.000685
366.8837	0.001803
369.6845	-0.000137
372.4876	0.000917
375.2928	-0.000179
378.1003	0.000939
380.9100	0.000095
383.7219	-0.000390
386.5359	0.000411
389.3522	0.002541
392.1706	0.005811
394.9912	0.005832
397.8140	0.010915
400.6390	0.011885
403.4661	0.013846
406.2954	0.018128
409.1269	0.018929
411.9605	0.018550
414.7962	0.019731
417.6341	0.022789
420.4741	0.023801
423.3162	0.026670
426.1605	0.022620
429.0068	0.023063
431.8553	0.024033
434.7059	0.024286
437.5586	0.022008
440.4135	0.023633
443.2703	0.024012
446.1293	0.023126
448.9904	0.021418
451.8535	0.021207
454.7188	0.018233
457.5860	0.017664
460.4554	0.015744
463.3268	0.011020
466.2003	0.014142
469.0758	0.009966
471.9533	0.009248
474.8329	0.005958
477.7145	0.007392
480.5982	0.005937
483.4838	0.006739
486.3715	0.017558
489.2612	0.005494
492.1529	0.005030
495.0466	0.004123
497.9423	0.003385
500.8400	0.002647
503.7397	0.003216
506.6414	0.002689
509.5450	0.002077
512.4506	0.003027
515.3582	0.001782
518.2677	0.001318
521.1792	0.002584
524.0927	0.002120
527.0081	0.004756
529.9254	0.002309
532.8447	0.006296
535.7659	0.006633
538.6890	0.008257
541.6140	0.009712
544.5410	0.012665
547.4699	0.011948
550.4007	0.017136
553.3333	0.018782
556.2679	0.020954
559.2044	0.021017
562.1427	0.029411
565.0829	0.032744
568.0250	0.046769
570.9690	0.088677
573.9149	0.124975
576.8626	0.141531
579.8121	0.166419
582.7635	0.234859
585.7167	0.195967
588.6718	0.162918
591.6288	0.107617
594.5875	0.141595
597.5481	0.123520
600.5105	0.152921
603.4747	0.147753
606.4407	0.137714
609.4085	0.109705
612.3781	0.108545
615.3495	0.101480
618.3227	0.091314
621.2977	0.064148
624.2745	0.068936
627.2530	0.057526
630.2333	0.051452
633.2154	0.037616
636.1992	0.033904
639.1848	0.035760
642.1721	0.026846
645.1612	0.024013
648.1520	0.024100
651.1445	0.022759
654.1388	0.026221
657.1348	0.885060
660.1325	0.059747
663.1319	0.016143
666.1330	0.020761
669.1359	0.016672
672.1404	0.025552
675.1466	0.020722
678.1545	0.023843
681.1641	0.027703
684.1754	0.028547
687.1883	0.038565
690.2029	0.029348
693.2192	0.029812
696.2371	0.023253
699.2567	0.028926
702.2779	0.024434
705.3008	0.019203
708.3253	0.031289
711.3514	0.025573
714.3791	0.029158
717.4085	0.023232
720.4395	0.022451
723.4721	0.021481
726.5063	0.026522
729.5421	0.028505
732.5795	0.035275
735.6185	0.038460
738.6591	0.035022
741.7013	0.030571
744.7450	0.022620
747.7903	0.026121
750.8372	0.033166
753.8856	0.033524
756.9356	0.039830
759.9872	0.050207
763.0403	0.038185
766.0949	0.043732
769.1510	0.038670
772.2087	0.033714
775.2679	0.026016
778.3287	0.022388
781.3909	0.026838
784.4547	0.028378
787.5199	0.023822
790.5867	0.021713
793.6550	0.018845
796.7247	0.021692
799.7959	0.018971
802.8686	0.014226
805.9428	0.013846
809.0185	0.018191
812.0956	0.014479
815.1742	0.012792
818.2542	0.012328
821.3357	0.011737
824.4186	0.009628
827.5029	0.011231
830.5887	0.009860
833.6759	0.007730
836.7646	0.005705
839.8546	0.007181
842.9461	0.004777
846.0390	0.005009
849.1333	0.003427
852.2289	0.004018
855.3260	0.011568
858.4245	0.009206
861.5243	0.004735
864.6255	0.004693
867.7281	0.003512
870.8321	0.004292
873.9374	0.004060
877.0441	0.005283
880.1521	0.006633
883.2615	0.006021
886.3722	0.005283
889.4843	0.005325
892.5977	0.003237
895.7124	0.003828
898.8284	0.003132
901.9458	0.002879
905.0644	0.005431
908.1844	0.003596
911.3057	0.002352
914.4283	0.002900
917.5521	0.003554
920.6773	0.003364
923.8037	0.004503
926.9314	0.002352
930.0604	0.000559
933.1906	0.001930
936.3221	0.002309
939.4549	0.001213
942.5889	0.000981
945.7241	0.001213
948.8606	0.001255
951.9983	0.001149
955.1373	0.000960
958.2775	0.001171
961.4189	0.002984
964.5615	0.001002
967.7053	0.001023
970.8504	-0.000221
973.9966	0.000960
977.1440	0.001571
980.2926	0.002752
983.4424	0.000517
986.5934	0.001002
989.7456	-0.000074
992.8989	0.000243
996.0534	-0.000390
999.2090	0.000854
1002.37	0.000664
1005.52	0.000032
1008.68	0.000538
1011.84	-0.001171
1015	0.000348
1018.17	0.001360
1021.33	0.000685
1023.03	-0.000664