Folder: Auto_Polymerization/Auto_Polymerization/Spectra/MRG-061-F-2_spectra_while_stopped (part 2)

File: spectrum_2025-06-19_12-45-20.txt
# Wavelength (nm)	Intensity (a.u.)
197.7802	-0.001139
200.4334	-0.001075
203.0892	0.000825
205.7475	0.000171
208.4084	0.001015
211.0718	-0.000927
213.7376	0.000213
216.4060	-0.001096
219.0769	0.000065
221.7503	-0.000252
224.4262	-0.000167
227.1046	0.000699
229.7855	-0.000653
232.4688	-0.000399
235.1546	-0.000843
237.8429	-0.000970
240.5337	0.000551
243.2269	0.000023
245.9225	0.000445
248.6206	-0.000167
251.3212	-0.000104
254.0242	-0.000231
256.7296	0.000931
259.4375	0.000065
262.1477	0.000551
264.8604	-0.000484
267.5755	0.000551
270.2931	0.000466
273.0130	0.000171
275.7353	-0.000146
278.4600	-0.000083
281.1871	-0.000716
283.9166	-0.000273
286.6484	-0.000294
289.3827	0.000910
292.1193	0.000213
294.8582	0.000192
297.5995	0.001269
300.3432	-0.000019
303.0892	0.000804
305.8376	-0.000463
308.5883	-0.000399
311.3413	0.000086
314.0967	-0.000674
316.8543	0.000509
319.6143	0.000002
322.3766	-0.000125
325.1412	-0.000970
327.9082	0.000973
330.6774	0.000509
333.4489	0.000382
336.2227	-0.000695
338.9987	0.000868
341.7771	0.000994
344.5577	0.001417
347.3406	0.001248
350.1257	0.000741
352.9131	0.000572
355.7027	0.002261
358.4946	0.000255
361.2888	-0.000653
364.0851	0.000952
366.8837	-0.001033
369.6845	-0.001265
372.4876	-0.001012
375.2928	-0.000674
378.1003	-0.001392
380.9100	-0.000421
383.7219	-0.000104
386.5359	-0.001033
389.3522	0.000319
392.1706	0.000403
394.9912	0.000931
397.8140	0.001733
400.6390	0.005661
403.4661	0.005007
406.2954	0.007541
409.1269	0.007647
411.9605	0.009167
414.7962	0.011047
417.6341	0.012947
420.4741	0.014003
423.3162	0.017678
426.1605	0.016749
429.0068	0.016622
431.8553	0.018311
434.7059	0.018164
437.5586	0.020634
440.4135	0.020444
443.2703	0.022789
446.1293	0.021268
448.9904	0.021606
451.8535	0.019452
454.7188	0.015883
457.5860	0.016728
460.4554	0.017382
463.3268	0.012229
466.2003	0.016643
469.0758	0.010012
471.9533	0.007541
474.8329	0.008365
477.7145	0.006443
480.5982	0.006802
483.4838	0.004965
486.3715	0.018438
489.2612	0.004880
492.1529	0.003803
495.0466	0.003402
497.9423	0.003634
500.8400	0.002811
503.7397	0.002473
506.6414	0.003106
509.5450	0.002219
512.4506	0.003275
515.3582	0.002979
518.2677	0.004289
521.1792	0.002135
524.0927	0.002789
527.0081	0.003043
529.9254	0.003761
532.8447	0.005366
535.7659	0.006823
538.6890	0.008259
541.6140	0.010793
544.5410	0.013961
547.4699	0.014024
550.4007	0.015650
553.3333	0.018924
556.2679	0.023950
559.2044	0.022852
562.1427	0.033052
565.0829	0.034594
568.0250	0.052756
570.9690	0.098582
573.9149	0.144093
576.8626	0.163078
579.8121	0.188610
582.7635	0.272577
585.7167	0.226581
588.6718	0.194122
591.6288	0.124664
594.5875	0.163923
597.5481	0.146732
600.5105	0.178283
603.4747	0.174672
606.4407	0.166900
609.4085	0.133766
612.3781	0.132836
615.3495	0.125529
618.3227	0.108529
621.2977	0.080040
624.2745	0.081265
627.2530	0.067602
630.2333	0.060126
633.2154	0.045174
636.1992	0.044012
639.1848	0.043358
642.1721	0.031067
645.1612	0.026638
648.1520	0.028758
651.1445	0.029321
654.1388	0.032199
657.1348	1.000000
660.1325	0.095988
663.1319	0.020578
666.1330	0.024392
669.1359	0.020170
672.1404	0.029863
675.1466	0.027054
678.1545	0.028659
681.1641	0.033517
684.1754	0.031067
687.1883	0.041816
690.2029	0.034256
693.2192	0.037635
696.2371	0.031067
699.2567	0.036220
702.2779	0.029905
705.3008	0.023612
708.3253	0.037571
711.3514	0.031257
714.3791	0.032904
717.4085	0.027857
720.4395	0.029230
723.4721	0.028406
726.5063	0.032503
729.5421	0.034404
732.5795	0.041647
735.6185	0.046885
738.6591	0.041373
741.7013	0.033939
744.7450	0.028490
747.7903	0.031278
750.8372	0.040486
753.8856	0.039282
756.9356	0.051298
759.9872	0.060464
763.0403	0.050939
766.0949	0.051573
769.1510	0.048109
772.2087	0.041457
775.2679	0.029335
778.3287	0.024626
781.3909	0.030877
784.4547	0.031025
787.5199	0.027920
790.5867	0.024288
793.6550	0.022641
796.7247	0.022873
799.7959	0.022957
802.8686	0.016326
805.9428	0.018480
809.0185	0.022556
812.0956	0.017488
815.1742	0.017931
818.2542	0.014003
821.3357	0.015946
824.4186	0.012166
827.5029	0.013813
830.5887	0.011131
833.6759	0.008639
836.7646	0.009315
839.8546	0.008597
842.9461	0.006084
846.0390	0.005493
849.1333	0.004542
852.2289	0.004437
855.3260	0.013665
858.4245	0.010012
861.5243	0.006717
864.6255	0.005408
867.7281	0.003571
870.8321	0.004711
873.9374	0.004331
877.0441	0.004141
880.1521	0.006950
883.2615	0.004648
886.3722	0.006126
889.4843	0.004204
892.5977	0.004289
895.7124	0.004289
898.8284	0.003888
901.9458	0.004922
905.0644	0.003845
908.1844	0.003106
911.3057	0.004120
914.4283	0.002599
917.5521	0.004310
920.6773	0.004225
923.8037	0.002937
926.9314	0.001755
930.0604	-0.000294
933.1906	0.002114
936.3221	-0.000421
939.4549	0.001269
942.5889	0.001586
945.7241	0.000762
948.8606	0.000551
951.9983	0.000825
955.1373	0.000445
958.2775	0.000086
961.4189	0.000741
964.5615	0.001480
967.7053	0.000762
970.8504	0.000889
973.9966	0.000530
977.1440	-0.000062
980.2926	-0.000885
983.4424	0.000086
986.5934	0.000128
989.7456	0.000023
992.8989	0.000297
996.0534	-0.000632
999.2090	0.000466
1002.37	0.000382
1005.52	0.000002
1008.68	0.000952
1011.84	0.000234
1015	0.002114
1018.17	0.000741
1021.33	0.000931
1023.03	-0.001286