Folder: Auto_Polymerization/Auto_Polymerization/Spectra/MRG-061-F-2_spectra_while_flow

Note: README.md
# Auto_Polymerization

[![Python 3.10](https://img.shields.io/badge/python-3.10-blue.svg)](https://www.python.org/downloads/)
[![License: MIT](https://img.shields.io/badge/License-MIT-yellow.svg)](https://opensource.org/licenses/MIT)

This repository contains the **Auto_Polymerization platform** for automated polymer synthesis and characterization.

## ğŸš€ Quick Start

### Device Testing

For testing real devices in your Auto_Polymerization platform, see the demo folder:

```bash
cd Auto_Polymerization/demo
python demo_device_test.py
```

This will guide you through testing individual devices with safe parameters.

For comprehensive device testing:

```bash
cd Auto_Polymerization/demo
python device_test_controller.py
```

ğŸ“– See [`Auto_Polymerization/demo/DEVICE_TESTING_README.md`](Auto_Polymerization/demo/DEVICE_TESTING_README.md) for detailed documentation.

## ğŸ“¦ Required Packages and Setup

### ğŸ”§ Hardware Drivers

Install drivers for the devices used in this project:

- **[Thorlabs CCS200 Spectrometer](https://www.thorlabs.com/thorproduct.cfm?partnumber=CCS200#ad-image-0)** - UV-VIS spectroscopy
- **[Thorlabs upLED Controller](https://www.thorlabs.com/thorproduct.cfm?partnumber=UPLED)** - LED control

### ğŸ Python Environment

**Python Version:** 3.10

Install the linear actuator and valves control package from the local source in editable mode:

```bash
pip install -e src/linear_actuator_and_valves/
```

### ğŸ“š Core Dependencies

```bash
pip install scipy numpy pandas matplotlib pyserial nmrglue requests pyyaml medusa-sdl
```

### ğŸ”¬ MatterLab Packages

Install from [MatterLab devices repository](https://gitlab.com/aspuru-guzik-group/self-driving-lab/devices):

#### Easy Installation (if available):
```bash
pip install matterlab_hotplates
pip install matterlab_pumps
pip install matterlab_serial_device
```

#### Manual Installation:

**Hotplates, Pumps, Serial Device:**

https://gitlab.com/aspuru-guzik-group/self-driving-lab/devices



**Spectrometers:**

- **NMR (Nanalysis Benchtop):**

  git clone https://gitlab.com/aspuru-guzik-group/self-driving-lab/devices/nmr
  cd nmr
  git checkout develop
  pip install -e .


- **UV-VIS (Thorlabs CCS200):**

  git clone https://gitlab.com/aspuru-guzik-group/self-driving-lab/devices/spectrometer
  cd spectrometer
  git checkout develop
  pip install -e .


> **Note:** If access is not public, contact Han Hao at University of Toronto.

### âš™ï¸ Configuration

**CSS200 Spectrometer DLL:**
Potentially you need to update the `DLL_FILE` value in `ccs_spectrometer.py` in the matterlab package:
The correct file path is typically: 
DLL_FILE = Path(r"C:\Program Files\IVI Foundation\VISA\Win64\Bin\TLCCS_64.dll")
#

**Arduino Setup:**
1. Install Arduino IDE on your PC
2. Upload the Arduino code from `users/setup/` to your Arduino board
3. An overview of the hardware connections of the GPIO pins is given in "Arduino_contacts_overview_2025_06_27_bb.jpg"
## âš ï¸ Important Notes



## ğŸ“ Project Struc

File: spectrum_2025-06-19_10-11-31.txt
# Wavelength (nm)	Intensity (a.u.)
197.7802	-0.000746
200.4334	0.001239
203.0892	0.000626
205.7475	-0.000915
208.4084	-0.000408
211.0718	0.000352
213.7376	-0.001168
216.4060	0.000690
219.0769	-0.000746
221.7503	-0.000978
224.4262	0.000964
227.1046	0.000099
229.7855	0.000500
232.4688	-0.000028
235.1546	0.000542
237.8429	-0.000662
240.5337	0.000479
243.2269	-0.001232
245.9225	0.000394
248.6206	0.000436
251.3212	0.001049
254.0242	-0.001147
256.7296	-0.000493
259.4375	-0.000408
262.1477	-0.000303
264.8604	0.000056
267.5755	0.000436
270.2931	0.000204
273.0130	-0.000345
275.7353	0.000373
278.4600	0.000056
281.1871	-0.000915
283.9166	-0.000915
286.6484	0.000647
289.3827	-0.000239
292.1193	-0.000091
294.8582	-0.000915
297.5995	0.001133
300.3432	0.001281
303.0892	-0.000260
305.8376	-0.000662
308.5883	-0.000239
311.3413	0.000711
314.0967	-0.001253
316.8543	-0.000662
319.6143	0.000014
322.3766	-0.000113
325.1412	-0.000324
327.9082	0.001175
330.6774	0.000183
333.4489	0.000626
336.2227	-0.000387
338.9987	-0.000640
341.7771	-0.000640
344.5577	0.000859
347.3406	0.001492
350.1257	0.001028
352.9131	0.000352
355.7027	0.000880
358.4946	-0.000450
361.2888	-0.000577
364.0851	-0.001844
366.8837	0.000246
369.6845	-0.000957
372.4876	0.000584
375.2928	-0.000915
378.1003	0.000669
380.9100	-0.000113
383.7219	-0.000366
386.5359	0.001154
389.3522	0.002822
392.1706	0.006222
394.9912	0.009811
397.8140	0.014625
400.6390	0.017201
403.4661	0.019904
406.2954	0.025330
409.1269	0.025119
411.9605	0.027800
414.7962	0.029574
417.6341	0.028180
420.4741	0.033205
423.3162	0.034747
426.1605	0.029785
429.0068	0.031031
431.8553	0.030587
434.7059	0.029511
437.5586	0.029848
440.4135	0.030355
443.2703	0.032234
446.1293	0.030883
448.9904	0.027800
451.8535	0.023535
454.7188	0.023451
457.5860	0.021044
460.4554	0.018552
463.3268	0.015385
466.2003	0.015807
469.0758	0.011711
471.9533	0.008671
474.8329	0.008608
477.7145	0.007763
480.5982	0.005905
483.4838	0.007024
486.3715	0.016019
489.2612	0.004765
492.1529	0.005145
495.0466	0.004342
497.9423	0.004913
500.8400	0.002991
503.7397	0.002125
506.6414	0.001302
509.5450	0.002738
512.4506	0.002337
515.3582	0.001408
518.2677	0.002506
521.1792	0.002759
524.0927	0.004068
527.0081	0.002759
529.9254	0.004596
532.8447	0.005884
535.7659	0.009262
538.6890	0.009347
541.6140	0.012049
544.5410	0.013907
547.4699	0.016040
550.4007	0.017201
553.3333	0.023789
556.2679	0.027103
559.2044	0.024591
562.1427	0.032762
565.0829	0.038885
568.0250	0.055692
570.9690	0.110441
573.9149	0.154823
576.8626	0.182757
579.8121	0.209508
582.7635	0.263751
585.7167	0.239322
588.6718	0.203512
591.6288	0.129085
594.5875	0.171587
597.5481	0.149798
600.5105	0.185122
603.4747	0.189112
606.4407	0.164366
609.4085	0.134553
612.3781	0.129845
615.3495	0.129866
618.3227	0.105289
621.2977	0.077376
624.2745	0.086413
627.2530	0.070409
630.2333	0.059598
633.2154	0.046507
636.1992	0.043340
639.1848	0.041630
642.1721	0.030349
645.1612	0.026241
648.1520	0.030741
651.1445	0.027197
654.1388	0.031821
657.1348	0.879466
660.1325	0.060262
663.1319	0.021449
666.1330	0.022299
669.1359	0.019524
672.1404	0.033015
675.1466	0.027209
678.1545	0.029088
681.1641	0.034472
684.1754	0.032023
687.1883	0.045494
690.2029	0.032868
693.2192	0.037386
696.2371	0.029489
699.2567	0.035718
702.2779	0.029109
705.3008	0.026681
708.3253	0.036795
711.3514	0.030988
714.3791	0.033058
717.4085	0.026259
720.4395	0.028286
723.4721	0.026808
726.5063	0.033902
729.5421	0.037281
732.5795	0.041968
735.6185	0.047943
738.6591	0.040764
741.7013	0.031115
744.7450	0.031326
747.7903	0.031390
750.8372	0.038210
753.8856	0.042496
756.9356	0.050371
759.9872	0.060569
763.0403	0.048661
766.0949	0.049696
769.1510	0.049907
772.2087	0.040997
775.2679	0.031770
778.3287	0.025752
781.3909	0.036373
784.4547	0.028835
787.5199	0.028307
790.5867	0.025520
793.6550	0.024253
796.7247	0.021572
799.7959	0.021572
802.8686	0.016230
805.9428	0.018785
809.0185	0.024063
812.0956	0.017454
815.1742	0.018003
818.2542	0.013358
821.3357	0.012619
824.4186	0.010487
827.5029	0.012936
830.5887	0.009579
833.6759	0.008988
836.7646	0.008312
839.8546	0.006475
842.9461	0.005799
846.0390	0.005377
849.1333	0.005630
852.2289	0.004976
855.3260	0.013422
858.4245	0.009009
861.5243	0.007383
864.6255	0.006285
867.7281	0.006369
870.8321	0.005103
873.9374	0.005335
877.0441	0.004913
880.1521	0.007826
883.2615	0.005124
886.3722	0.006771
889.4843	0.005187
892.5977	0.004174
895.7124	0.004385
898.8284	0.004131
901.9458	0.005060
905.0644	0.004976
908.1844	0.002970
911.3057	0.002020
914.4283	0.002801
917.5521	0.004638
920.6773	0.003012
923.8037	0.004427
926.9314	0.002442
930.0604	0.002421
933.1906	0.000964
936.3221	0.001365
939.4549	0.001999
942.5889	0.001175
945.7241	0.001429
948.8606	0.001703
951.9983	0.001935
955.1373	0.000267
958.2775	0.001049
961.4189	-0.000556
964.5615	0.001196
967.7053	-0.000134
970.8504	0.000711
973.9966	-0.000999
977.1440	0.001534
980.2926	0.000373
983.4424	0.000690
986.5934	-0.000324
989.7456	0.000436
992.8989	0.001049
996.0534	0.000436
999.2090	0.000077
1002.37	-0.001591
1005.52	0.000352
1008.68	0.000056
1011.84	0.000352
1015	0.000056
1018.17	0.000711
1021.33	-0.000894
1023.03	-0.000113

File: spectrum_2025-06-19_10-16-38.txt
# Wavelength (nm)	Intensity (a.u.)
197.7802	0.000980
200.4334	-0.000244
203.0892	-0.000455
205.7475	-0.000033
208.4084	0.001486
211.0718	0.001296
213.7376	0.000368
216.4060	-0.000139
219.0769	0.001781
221.7503	0.001106
224.4262	0.001592
227.1046	-0.000603
229.7855	0.000304
232.4688	-0.000561
235.1546	0.000389
237.8429	0.000178
240.5337	-0.000160
243.2269	-0.000392
245.9225	0.000705
248.6206	0.001381
251.3212	0.001212
254.0242	0.000262
256.7296	0.000811
259.4375	-0.000287
262.1477	0.001993
264.8604	0.000072
267.5755	0.001402
270.2931	0.000241
273.0130	0.000199
275.7353	0.000262
278.4600	-0.000983
281.1871	-0.000540
283.9166	-0.000667
286.6484	0.000874
289.3827	-0.000329
292.1193	0.001402
294.8582	0.001191
297.5995	0.001423
300.3432	0.001169
303.0892	-0.000160
305.8376	0.000790
308.5883	0.000368
311.3413	0.000769
314.0967	-0.001722
316.8543	0.000536
319.6143	0.000030
322.3766	0.000346
325.1412	-0.000012
327.9082	0.001275
330.6774	0.000600
333.4489	0.001824
336.2227	0.000093
338.9987	0.002035
341.7771	0.001655
344.5577	0.000157
347.3406	0.000515
350.1257	-0.000941
352.9131	0.000790
355.7027	0.001043
358.4946	0.000304
361.2888	0.000895
364.0851	-0.000329
366.8837	0.001275
369.6845	0.000642
372.4876	-0.000561
375.2928	-0.000730
378.1003	0.000663
380.9100	0.000494
383.7219	0.000325
386.5359	0.001106
389.3522	0.002900
392.1706	0.005348
394.9912	0.010603
397.8140	0.015647
400.6390	0.018770
403.4661	0.020796
406.2954	0.025924
409.1269	0.026620
411.9605	0.027612
414.7962	0.028625
417.6341	0.028646
420.4741	0.031981
423.3162	0.033796
426.1605	0.029744
429.0068	0.031010
431.8553	0.030609
434.7059	0.031749
437.5586	0.033880
440.4135	0.030398
443.2703	0.033078
446.1293	0.030588
448.9904	0.029913
451.8535	0.025312
454.7188	0.019994
457.5860	0.021112
460.4554	0.020289
463.3268	0.014845
466.2003	0.016681
469.0758	0.010392
471.9533	0.009442
474.8329	0.009970
477.7145	0.010054
480.5982	0.008556
483.4838	0.005833
486.3715	0.016976
489.2612	0.004694
492.1529	0.005728
495.0466	0.004652
497.9423	0.003428
500.8400	0.004398
503.7397	0.005854
506.6414	0.003976
509.5450	0.003934
512.4506	0.002393
515.3582	0.004040
518.2677	0.003343
521.1792	0.003217
524.0927	0.003554
527.0081	0.003850
529.9254	0.006108
532.8447	0.007627
535.7659	0.008028
538.6890	0.010075
541.6140	0.011384
544.5410	0.014127
547.4699	0.017609
550.4007	0.019086
553.3333	0.023202
556.2679	0.026346
559.2044	0.025755
562.1427	0.033817
565.0829	0.041920
568.0250	0.054477
570.9690	0.115086
573.9149	0.157631
576.8626	0.185678
579.8121	0.212479
582.7635	0.263993
585.7167	0.240927
588.6718	0.200598
591.6288	0.138849
594.5875	0.174324
597.5481	0.157821
600.5105	0.183926
603.4747	0.193950
606.4407	0.164004
609.4085	0.137773
612.3781	0.130492
615.3495	0.129859
618.3227	0.109663
621.2977	0.075222
624.2745	0.090374
627.2530	0.072120
630.2333	0.061821
633.2154	0.045255
636.1992	0.044242
639.1848	0.043588
642.1721	0.032988
645.1612	0.028308
648.1520	0.028679
651.1445	0.029776
654.1388	0.034614
657.1348	0.882185
660.1325	0.063580
663.1319	0.020802
666.1330	0.027153
669.1359	0.021007
672.1404	0.030419
675.1466	0.027380
678.1545	0.029258
681.1641	0.035167
684.1754	0.032614
687.1883	0.046373
690.2029	0.034028
693.2192	0.040380
696.2371	0.029701
699.2567	0.037003
702.2779	0.030651
705.3008	0.025734
708.3253	0.037890
711.3514	0.033099
714.3791	0.034956
717.4085	0.028288
720.4395	0.028836
723.4721	0.028161
726.5063	0.032149
729.5421	0.035442
732.5795	0.039304
735.6185	0.047829
738.6591	0.042342
741.7013	0.034809
744.7450	0.028435
747.7903	0.033458
750.8372	0.040464
753.8856	0.045044
756.9356	0.053949
759.9872	0.060513
763.0403	0.048652
766.0949	0.050003
769.1510	0.050573
772.2087	0.041013
775.2679	0.031791
778.3287	0.026536
781.3909	0.036623
784.4547	0.029174
787.5199	0.030482
790.5867	0.027359
793.6550	0.023370
796.7247	0.023434
799.7959	0.022737
802.8686	0.017483
805.9428	0.018495
809.0185	0.023497
812.0956	0.017968
815.1742	0.016765
818.2542	0.013811
821.3357	0.014612
824.4186	0.011679
827.5029	0.013874
830.5887	0.010244
833.6759	0.008514
836.7646	0.008324
839.8546	0.006298
842.9461	0.005285
846.0390	0.005200
849.1333	0.004673
852.2289	0.006635
855.3260	0.012755
858.4245	0.010919
861.5243	0.008788
864.6255	0.005496
867.7281	0.004483
870.8321	0.006720
873.9374	0.005306
877.0441	0.004504
880.1521	0.009484
883.2615	0.008492
886.3722	0.006445
889.4843	0.004251
892.5977	0.003913
895.7124	0.004905
898.8284	0.005643
901.9458	0.002626
905.0644	0.004609
908.1844	0.004905
911.3057	0.004314
914.4283	0.003723
917.5521	0.002520
920.6773	0.003449
923.8037	0.004504
926.9314	0.002773
930.0604	0.001486
933.1906	0.003343
936.3221	0.003850
939.4549	0.002710
942.5889	-0.001025
945.7241	0.002393
948.8606	0.000895
951.9983	0.001824
955.1373	0.001824
958.2775	0.001528
961.4189	0.001486
964.5615	0.002415
967.7053	-0.000350
970.8504	0.000684
973.9966	-0.000751
977.1440	0.002520
980.2926	0.000916
983.4424	0.002140
986.5934	0.000663
989.7456	0.001402
992.8989	-0.000392
996.0534	0.000389
999.2090	0.000853
1002.37	0.000642
1005.52	-0.000202
1008.68	0.000536
1011.84	0.000009
1015	0.000389
1018.17	0.000621
1021.33	0.000389
1023.03	0.000536

File: spectrum_2025-06-19_10-31-58.txt
# Wavelength (nm)	Intensity (a.u.)
197.7802	0.002744
200.4334	-0.000443
203.0892	0.001140
205.7475	0.001224
208.4084	0.000971
211.0718	0.001330
213.7376	0.001097
216.4060	0.000865
219.0769	0.000528
221.7503	-0.001161
224.4262	0.001119
227.1046	-0.000507
229.7855	0.000971
232.4688	-0.000317
235.1546	0.000865
237.8429	-0.000929
240.5337	-0.000443
243.2269	0.000908
245.9225	-0.000675
248.6206	-0.000253
251.3212	0.001477
254.0242	0.001330
256.7296	0.001541
259.4375	-0.000549
262.1477	0.001752
264.8604	0.001161
267.5755	-0.000211
270.2931	0.000612
273.0130	0.000485
275.7353	0.000865
278.4600	0.001435
281.1871	-0.001203
283.9166	0.000781
286.6484	0.000401
289.3827	0.001477
292.1193	-0.000781
294.8582	0.000612
297.5995	0.000675
300.3432	0.001625
303.0892	0.000549
305.8376	-0.000317
308.5883	-0.001224
311.3413	0.000865
314.0967	0.000739
316.8543	0.000232
319.6143	0.000485
322.3766	-0.000211
325.1412	-0.000338
327.9082	0.000422
330.6774	-0.000443
333.4489	0.002047
336.2227	-0.000127
338.9987	0.001921
341.7771	-0.000190
344.5577	0.000295
347.3406	0.001752
350.1257	0.000317
352.9131	-0.000570
355.7027	-0.000127
358.4946	-0.000464
361.2888	0.001984
364.0851	0.000739
366.8837	0.000950
369.6845	0.000802
372.4876	0.001013
375.2928	0.000021
378.1003	0.000528
380.9100	0.001203
383.7219	0.000401
386.5359	0.002026
389.3522	0.003841
392.1706	0.005487
394.9912	0.007978
397.8140	0.013845
400.6390	0.016990
403.4661	0.020366
406.2954	0.026234
409.1269	0.025938
411.9605	0.027078
414.7962	0.027036
417.6341	0.030011
420.4741	0.031088
423.3162	0.034211
426.1605	0.029568
429.0068	0.029821
431.8553	0.029315
434.7059	0.029357
437.5586	0.029885
440.4135	0.028872
443.2703	0.035056
446.1293	0.030265
448.9904	0.027859
451.8535	0.025600
454.7188	0.020198
457.5860	0.021590
460.4554	0.020978
463.3268	0.016166
466.2003	0.016293
469.0758	0.012157
471.9533	0.009582
474.8329	0.010447
477.7145	0.008927
480.5982	0.008695
483.4838	0.006754
486.3715	0.019100
489.2612	0.005508
492.1529	0.005107
495.0466	0.005255
497.9423	0.003778
500.8400	0.003187
503.7397	0.003039
506.6414	0.004010
509.5450	0.002406
512.4506	0.003292
515.3582	0.003736
518.2677	0.004896
521.1792	0.002744
524.0927	0.004179
527.0081	0.005002
529.9254	0.007112
532.8447	0.006627
535.7659	0.007661
538.6890	0.008949
541.6140	0.012431
544.5410	0.015829
547.4699	0.017327
550.4007	0.019353
553.3333	0.022815
556.2679	0.026023
559.2044	0.026445
562.1427	0.036047
565.0829	0.039424
568.0250	0.056456
570.9690	0.112722
573.9149	0.155186
576.8626	0.181208
579.8121	0.209784
582.7635	0.259402
585.7167	0.243130
588.6718	0.199358
591.6288	0.133067
594.5875	0.173737
597.5481	0.151724
600.5105	0.182411
603.4747	0.189270
606.4407	0.167384
609.4085	0.133827
612.3781	0.129057
615.3495	0.131780
618.3227	0.109789
621.2977	0.075303
624.2745	0.087903
627.2530	0.070934
630.2333	0.061247
633.2154	0.044954
636.1992	0.042991
639.1848	0.041704
642.1721	0.031726
645.1612	0.028839
648.1520	0.030252
651.1445	0.028917
654.1388	0.033307
657.1348	0.874157
660.1325	0.061623
663.1319	0.020963
666.1330	0.025509
669.1359	0.019480
672.1404	0.031003
675.1466	0.026044
678.1545	0.027943
681.1641	0.035689
684.1754	0.034042
687.1883	0.044257
690.2029	0.035414
693.2192	0.038095
696.2371	0.030940
699.2567	0.036406
702.2779	0.030433
705.3008	0.024292
708.3253	0.037419
711.3514	0.032523
714.3791	0.033029
717.4085	0.029526
720.4395	0.028006
723.4721	0.027226
726.5063	0.035056
729.5421	0.038010
732.5795	0.040480
735.6185	0.047507
738.6591	0.041134
741.7013	0.033831
744.7450	0.028851
747.7903	0.031932
750.8372	0.040480
753.8856	0.041725
756.9356	0.052910
759.9872	0.059622
763.0403	0.049449
766.0949	0.049365
769.1510	0.046431
772.2087	0.041661
775.2679	0.031489
778.3287	0.026677
781.3909	0.035161
784.4547	0.030961
787.5199	0.028787
790.5867	0.025938
793.6550	0.023638
796.7247	0.021084
799.7959	0.023047
802.8686	0.015850
805.9428	0.021000
809.0185	0.023173
812.0956	0.017348
815.1742	0.017306
818.2542	0.014816
821.3357	0.017918
824.4186	0.011312
827.5029	0.013634
830.5887	0.010341
833.6759	0.008759
836.7646	0.007978
839.8546	0.009645
842.9461	0.004622
846.0390	0.005867
849.1333	0.004812
852.2289	0.006648
855.3260	0.014246
858.4245	0.008906
861.5243	0.007450
864.6255	0.007323
867.7281	0.006057
870.8321	0.006374
873.9374	0.003377
877.0441	0.005023
880.1521	0.009286
883.2615	0.005297
886.3722	0.007049
889.4843	0.004516
892.5977	0.005318
895.7124	0.003609
898.8284	0.004242
901.9458	0.003778
905.0644	0.005846
908.1844	0.003419
911.3057	0.003736
914.4283	0.003482
917.5521	0.005255
920.6773	0.003356
923.8037	0.003672
926.9314	0.003187
930.0604	0.003757
933.1906	0.002828
936.3221	0.002701
939.4549	0.002195
942.5889	0.001541
945.7241	0.000232
948.8606	0.000317
951.9983	0.002490
955.1373	0.002490
958.2775	0.001604
961.4189	0.000886
964.5615	0.001625
967.7053	0.001562
970.8504	0.001013
973.9966	0.000696
977.1440	0.001562
980.2926	0.000612
983.4424	0.001076
986.5934	0.001541
989.7456	-0.000063
992.8989	-0.000148
996.0534	0.000063
999.2090	0.001140
1002.37	-0.000422
1005.52	0.001794
1008.68	0.000274
1011.84	0.002026
1015	-0.000253
1018.17	0.000021
1021.33	0.000169
1023.03	0.000528