Folder: Auto_Polymerization/Auto_Polymerization/Spectra/MRG-061-F5_spectra_while_stopped_with_alu_foil (part 2)

File: spectrum_2025-06-20_10-28-31.txt
# Wavelength (nm)	Intensity (a.u.)
197.7802	0.000084
200.4334	0.000063
203.0892	0.000528
205.7475	-0.000633
208.4084	0.000739
211.0718	-0.000717
213.7376	-0.001329
216.4060	0.001055
219.0769	-0.000760
221.7503	-0.001055
224.4262	0.000169
227.1046	-0.000063
229.7855	-0.000148
232.4688	-0.000317
235.1546	0.000717
237.8429	0.000760
240.5337	-0.000211
243.2269	0.000169
245.9225	-0.000295
248.6206	-0.000106
251.3212	0.000317
254.0242	-0.000528
256.7296	-0.000928
259.4375	0.000338
262.1477	-0.000506
264.8604	0.000127
267.5755	0.001224
270.2931	-0.000084
273.0130	0.000317
275.7353	0.000633
278.4600	0.000443
281.1871	-0.000127
283.9166	-0.000464
286.6484	0.000464
289.3827	0.000211
292.1193	-0.000359
294.8582	-0.000211
297.5995	-0.000042
300.3432	0.000232
303.0892	-0.001815
305.8376	0.000063
308.5883	0.000127
311.3413	0.001076
314.0967	-0.000021
316.8543	-0.000401
319.6143	-0.000950
322.3766	0.000338
325.1412	-0.000506
327.9082	0.000401
330.6774	-0.000359
333.4489	0.000506
336.2227	0.000760
338.9987	-0.000739
341.7771	-0.000633
344.5577	-0.000232
347.3406	-0.000992
350.1257	0.000612
352.9131	0.000190
355.7027	-0.000485
358.4946	-0.000169
361.2888	0.000506
364.0851	0.001372
366.8837	-0.000401
369.6845	-0.000675
372.4876	0.000359
375.2928	-0.000127
378.1003	0.000971
380.9100	-0.000106
383.7219	0.000211
386.5359	0.001477
389.3522	0.001266
392.1706	0.001498
394.9912	0.001583
397.8140	0.002068
400.6390	0.002553
403.4661	0.003946
406.2954	0.005718
409.1269	0.006942
411.9605	0.006921
414.7962	0.009875
417.6341	0.010804
420.4741	0.012386
423.3162	0.014222
426.1605	0.012218
429.0068	0.014539
431.8553	0.014750
434.7059	0.017113
437.5586	0.016733
440.4135	0.016480
443.2703	0.019012
446.1293	0.019075
448.9904	0.019413
451.8535	0.015699
454.7188	0.015277
457.5860	0.013399
460.4554	0.014433
463.3268	0.011120
466.2003	0.010171
469.0758	0.009474
471.9533	0.005908
474.8329	0.006942
477.7145	0.005360
480.5982	0.005128
483.4838	0.005528
486.3715	0.013716
489.2612	0.004684
492.1529	0.003672
495.0466	0.002996
497.9423	0.000591
500.8400	0.002912
503.7397	0.002574
506.6414	0.001372
509.5450	0.003102
512.4506	0.001983
515.3582	0.002469
518.2677	0.002828
521.1792	0.001667
524.0927	0.003566
527.0081	0.003587
529.9254	0.003840
532.8447	0.006119
535.7659	0.007660
538.6890	0.007617
541.6140	0.008905
544.5410	0.011036
547.4699	0.013315
550.4007	0.014560
553.3333	0.018379
556.2679	0.020426
559.2044	0.019983
562.1427	0.023612
565.0829	0.032074
568.0250	0.042434
570.9690	0.088540
573.9149	0.120149
576.8626	0.140132
579.8121	0.159292
582.7635	0.204659
585.7167	0.185098
588.6718	0.156886
591.6288	0.102889
594.5875	0.133485
597.5481	0.122660
600.5105	0.144648
603.4747	0.151611
606.4407	0.127113
609.4085	0.107615
612.3781	0.102446
615.3495	0.105231
618.3227	0.085755
621.2977	0.058028
624.2745	0.071786
627.2530	0.056825
630.2333	0.048469
633.2154	0.037180
636.1992	0.035745
639.1848	0.033466
642.1721	0.025444
645.1612	0.021816
648.1520	0.024013
651.1445	0.023909
654.1388	0.027801
657.1348	0.706835
660.1325	0.036716
663.1319	0.015887
666.1330	0.018640
669.1359	0.017830
672.1404	0.026482
675.1466	0.022262
678.1545	0.023718
681.1641	0.027199
684.1754	0.028318
687.1883	0.035429
690.2029	0.027431
693.2192	0.031525
696.2371	0.023549
699.2567	0.027558
702.2779	0.023950
705.3008	0.018717
708.3253	0.032770
711.3514	0.026229
714.3791	0.028803
717.4085	0.020679
720.4395	0.022852
723.4721	0.023781
726.5063	0.027030
729.5421	0.029035
732.5795	0.033213
735.6185	0.039986
738.6591	0.031652
741.7013	0.027157
744.7450	0.024119
747.7903	0.025701
750.8372	0.032538
753.8856	0.035471
756.9356	0.039839
759.9872	0.051423
763.0403	0.040366
766.0949	0.041801
769.1510	0.037328
772.2087	0.035513
775.2679	0.023992
778.3287	0.019371
781.3909	0.029119
784.4547	0.026608
787.5199	0.024013
790.5867	0.021924
793.6550	0.018970
796.7247	0.015340
799.7959	0.015847
802.8686	0.011753
805.9428	0.016163
809.0185	0.019054
812.0956	0.014454
815.1742	0.012851
818.2542	0.010888
821.3357	0.013294
824.4186	0.010403
827.5029	0.011099
830.5887	0.008546
833.6759	0.008715
836.7646	0.006752
839.8546	0.006499
842.9461	0.004410
846.0390	0.003334
849.1333	0.003925
852.2289	0.003967
855.3260	0.011120
858.4245	0.008145
861.5243	0.003735
864.6255	0.004368
867.7281	0.004030
870.8321	0.004009
873.9374	0.003925
877.0441	0.003693
880.1521	0.008145
883.2615	0.004727
886.3722	0.005296
889.4843	0.003608
892.5977	0.004136
895.7124	0.002469
898.8284	0.003861
901.9458	0.002996
905.0644	0.005043
908.1844	0.002511
911.3057	0.003228
914.4283	0.002005
917.5521	0.002891
920.6773	0.003545
923.8037	0.002469
926.9314	0.000633
930.0604	0.002427
933.1906	0.000084
936.3221	0.001751
939.4549	0.002026
942.5889	0.000443
945.7241	0.001287
948.8606	0.001329
951.9983	0.000232
955.1373	0.001899
958.2775	-0.000528
961.4189	0.000907
964.5615	0.000696
967.7053	-0.000127
970.8504	0.000042
973.9966	-0.000802
977.1440	0.000506
980.2926	-0.000802
983.4424	-0.000084
986.5934	-0.000696
989.7456	-0.000865
992.8989	-0.000127
996.0534	-0.000063
999.2090	-0.000886
1002.37	-0.000063
1005.52	0.000928
1008.68	-0.000844
1011.84	0.001245
1015	0.001013
1018.17	0.000823
1021.33	0.001182
1023.03	-0.000739