Folder: Auto_Polymerization/Auto_Polymerization/Spectra/MRG-061-F-4_spectra_while_stopped

Note: README.md
# Auto_Polymerization

[![Python 3.10](https://img.shields.io/badge/python-3.10-blue.svg)](https://www.python.org/downloads/)
[![License: MIT](https://img.shields.io/badge/License-MIT-yellow.svg)](https://opensource.org/licenses/MIT)

This repository contains the **Auto_Polymerization platform** for automated polymer synthesis and characterization.

## ğŸš€ Quick Start

### Device Testing

For testing real devices in your Auto_Polymerization platform, see the demo folder:

```bash
cd Auto_Polymerization/demo
python demo_device_test.py
```

This will guide you through testing individual devices with safe parameters.

For comprehensive device testing:

```bash
cd Auto_Polymerization/demo
python device_test_controller.py
```

ğŸ“– See [`Auto_Polymerization/demo/DEVICE_TESTING_README.md`](Auto_Polymerization/demo/DEVICE_TESTING_README.md) for detailed documentation.

## ğŸ“¦ Required Packages and Setup

### ğŸ”§ Hardware Drivers

Install drivers for the devices used in this project:

- **[Thorlabs CCS200 Spectrometer](https://www.thorlabs.com/thorproduct.cfm?partnumber=CCS200#ad-image-0)** - UV-VIS spectroscopy
- **[Thorlabs upLED Controller](https://www.thorlabs.com/thorproduct.cfm?partnumber=UPLED)** - LED control

### ğŸ Python Environment

**Python Version:** 3.10

Install the linear actuator and valves control package from the local source in editable mode:

```bash
pip install -e src/linear_actuator_and_valves/
```

### ğŸ“š Core Dependencies

```bash
pip install scipy numpy pandas matplotlib pyserial nmrglue requests pyyaml medusa-sdl
```

### ğŸ”¬ MatterLab Packages

Install from [MatterLab devices repository](https://gitlab.com/aspuru-guzik-group/self-driving-lab/devices):

#### Easy Installation (if available):
```bash
pip install matterlab_hotplates
pip install matterlab_pumps
pip install matterlab_serial_device
```

#### Manual Installation:

**Hotplates, Pumps, Serial Device:**

https://gitlab.com/aspuru-guzik-group/self-driving-lab/devices



**Spectrometers:**

- **NMR (Nanalysis Benchtop):**

  git clone https://gitlab.com/aspuru-guzik-group/self-driving-lab/devices/nmr
  cd nmr
  git checkout develop
  pip install -e .


- **UV-VIS (Thorlabs CCS200):**

  git clone https://gitlab.com/aspuru-guzik-group/self-driving-lab/devices/spectrometer
  cd spectrometer
  git checkout develop
  pip install -e .


> **Note:** If access is not public, contact Han Hao at University of Toronto.

### âš™ï¸ Configuration

**CSS200 Spectrometer DLL:**
Potentially you need to update the `DLL_FILE` value in `ccs_spectrometer.py` in the matterlab package:
The correct file path is typically: 
DLL_FILE = Path(r"C:\Program Files\IVI Foundation\VISA\Win64\Bin\TLCCS_64.dll")
#

**Arduino Setup:**
1. Install Arduino IDE on your PC
2. Upload the Arduino code from `users/setup/` to your Arduino board
3. An overview of the hardware connections of the GPIO pins is given in "Arduino_contacts_overview_2025_06_27_bb.jpg"
## âš ï¸ Important Notes



## ğŸ“ Project Struc

File: spectrum_2025-06-20_07-40-46.txt
# Wavelength (nm)	Intensity (a.u.)
197.7802	0.000316
200.4334	0.001350
203.0892	0.000105
205.7475	-0.000970
208.4084	0.001498
211.0718	-0.000232
213.7376	0.001413
216.4060	0.000612
219.0769	0.001561
221.7503	0.000548
224.4262	0.000759
227.1046	-0.001582
229.7855	-0.000084
232.4688	0.001498
235.1546	0.000422
237.8429	-0.000105
240.5337	0.000148
243.2269	0.000717
245.9225	0.000211
248.6206	-0.000316
251.3212	0.002594
254.0242	0.001540
256.7296	-0.000907
259.4375	0.000169
262.1477	0.000591
264.8604	-0.000148
267.5755	0.000569
270.2931	0.000316
273.0130	0.000042
275.7353	0.001076
278.4600	0.000232
281.1871	0.001076
283.9166	0.001139
286.6484	-0.001012
289.3827	0.000380
292.1193	0.000190
294.8582	-0.000485
297.5995	0.000738
300.3432	0.000422
303.0892	0.000738
305.8376	0.000780
308.5883	0.000274
311.3413	0.000780
314.0967	-0.001223
316.8543	0.000401
319.6143	-0.001181
322.3766	0.000380
325.1412	-0.000865
327.9082	0.001244
330.6774	0.000865
333.4489	0.001097
336.2227	-0.000042
338.9987	0.000801
341.7771	-0.000063
344.5577	0.000422
347.3406	0.000485
350.1257	0.000759
352.9131	-0.000337
355.7027	0.000190
358.4946	0.001350
361.2888	0.001076
364.0851	-0.000084
366.8837	0.001350
369.6845	0.001645
372.4876	0.001371
375.2928	0.000823
378.1003	0.000485
380.9100	0.001012
383.7219	-0.000063
386.5359	0.000949
389.3522	0.002151
392.1706	0.005294
394.9912	0.006770
397.8140	0.010145
400.6390	0.012275
403.4661	0.013435
406.2954	0.018476
409.1269	0.017886
411.9605	0.018033
414.7962	0.018223
417.6341	0.018814
420.4741	0.020649
423.3162	0.022083
426.1605	0.021978
429.0068	0.020501
431.8553	0.020185
434.7059	0.021282
437.5586	0.020206
440.4135	0.019721
443.2703	0.021598
446.1293	0.019193
448.9904	0.018856
451.8535	0.017084
454.7188	0.015502
457.5860	0.014511
460.4554	0.013414
463.3268	0.010968
466.2003	0.013014
469.0758	0.008542
471.9533	0.007445
474.8329	0.006960
477.7145	0.005421
480.5982	0.005041
483.4838	0.004408
486.3715	0.011748
489.2612	0.003628
492.1529	0.003923
495.0466	0.003122
497.9423	0.002763
500.8400	0.002088
503.7397	0.002215
506.6414	0.002721
509.5450	0.001793
512.4506	0.003501
515.3582	0.003332
518.2677	0.001582
521.1792	0.004029
524.0927	0.003543
527.0081	0.002932
529.9254	0.003290
532.8447	0.003396
535.7659	0.005378
538.6890	0.006391
541.6140	0.008036
544.5410	0.010229
547.4699	0.012064
550.4007	0.012402
553.3333	0.015566
556.2679	0.019911
559.2044	0.018476
562.1427	0.024656
565.0829	0.029845
568.0250	0.041319
570.9690	0.079790
573.9149	0.112060
576.8626	0.130389
579.8121	0.147705
582.7635	0.185670
585.7167	0.170168
588.6718	0.141968
591.6288	0.093774
594.5875	0.120581
597.5481	0.105100
600.5105	0.130832
603.4747	0.136084
606.4407	0.115857
609.4085	0.095693
612.3781	0.093563
615.3495	0.091981
618.3227	0.076985
621.2977	0.053573
624.2745	0.061419
627.2530	0.051105
630.2333	0.043365
633.2154	0.032481
636.1992	0.031279
639.1848	0.029950
642.1721	0.022541
645.1612	0.018265
648.1520	0.019110
651.1445	0.021770
654.1388	0.025274
657.1348	0.619902
660.1325	0.031375
663.1319	0.016196
666.1330	0.016638
669.1359	0.014005
672.1404	0.021492
675.1466	0.017991
678.1545	0.021197
681.1641	0.026175
684.1754	0.025521
687.1883	0.030435
690.2029	0.026006
693.2192	0.029381
696.2371	0.020143
699.2567	0.026006
702.2779	0.021134
705.3008	0.018582
708.3253	0.027925
711.3514	0.023053
714.3791	0.024741
717.4085	0.020902
720.4395	0.020881
723.4721	0.020586
726.5063	0.024466
729.5421	0.027356
732.5795	0.029760
735.6185	0.036004
738.6591	0.028811
741.7013	0.024635
744.7450	0.022885
747.7903	0.022357
750.8372	0.031975
753.8856	0.031152
756.9356	0.037375
759.9872	0.044799
763.0403	0.037796
766.0949	0.035666
769.1510	0.035497
772.2087	0.031342
775.2679	0.022041
778.3287	0.018645
781.3909	0.026154
784.4547	0.022547
787.5199	0.021324
790.5867	0.018371
793.6550	0.016894
796.7247	0.016262
799.7959	0.015291
802.8686	0.010145
805.9428	0.014532
809.0185	0.017063
812.0956	0.011115
815.1742	0.012528
818.2542	0.010883
821.3357	0.012191
824.4186	0.006897
827.5029	0.009976
830.5887	0.009196
833.6759	0.007171
836.7646	0.005083
839.8546	0.005125
842.9461	0.003543
846.0390	0.005589
849.1333	0.004640
852.2289	0.004788
855.3260	0.010461
858.4245	0.007213
861.5243	0.004935
864.6255	0.004661
867.7281	0.004619
870.8321	0.005969
873.9374	0.003206
877.0441	0.004450
880.1521	0.005842
883.2615	0.004345
886.3722	0.004978
889.4843	0.002172
892.5977	0.003818
895.7124	0.003670
898.8284	0.003185
901.9458	0.003775
905.0644	0.004387
908.1844	0.003058
911.3057	0.002383
914.4283	0.001266
917.5521	0.002594
920.6773	0.002658
923.8037	0.003375
926.9314	0.002468
930.0604	0.001708
933.1906	0.001835
936.3221	0.001223
939.4549	0.001498
942.5889	-0.000253
945.7241	0.001835
948.8606	0.001118
951.9983	0.001814
955.1373	0.000127
958.2775	-0.000105
961.4189	-0.000232
964.5615	0.001856
967.7053	-0.000169
970.8504	0.000991
973.9966	0.001434
977.1440	-0.000801
980.2926	0.000949
983.4424	0.000970
986.5934	0.001097
989.7456	0.001139
992.8989	-0.001603
996.0534	-0.000633
999.2090	0.001139
1002.37	0.000759
1005.52	0.001730
1008.68	-0.000105
1011.84	-0.001202
1015	-0.000211
1018.17	0.000738
1021.33	0.000084
1023.03	-0.000823

File: spectrum_2025-06-20_08-03-15.txt
# Wavelength (nm)	Intensity (a.u.)
197.7802	0.001790
200.4334	0.001137
203.0892	0.000209
205.7475	0.000694
208.4084	0.000546
211.0718	0.000631
213.7376	0.001263
216.4060	0.000083
219.0769	0.000441
221.7503	0.000251
224.4262	0.000652
227.1046	-0.000634
229.7855	0.000884
232.4688	0.002402
235.1546	0.002486
237.8429	0.001179
240.5337	0.001242
243.2269	0.001052
245.9225	0.000525
248.6206	0.000251
251.3212	0.001601
254.0242	0.000230
256.7296	0.000884
259.4375	0.000926
262.1477	0.000968
264.8604	0.001369
267.5755	0.001179
270.2931	0.000652
273.0130	0.001242
275.7353	0.000272
278.4600	0.001706
281.1871	0.000357
283.9166	0.001179
286.6484	0.000019
289.3827	0.001010
292.1193	0.000652
294.8582	0.001622
297.5995	0.000631
300.3432	0.001284
303.0892	0.000462
305.8376	0.000589
308.5883	0.001917
311.3413	0.000483
314.0967	-0.000360
316.8543	0.001263
319.6143	-0.000192
322.3766	0.000378
325.1412	0.001769
327.9082	0.000778
330.6774	0.000884
333.4489	0.000441
336.2227	0.000504
338.9987	0.001811
341.7771	-0.000698
344.5577	-0.000655
347.3406	0.000504
350.1257	-0.000571
352.9131	0.000715
355.7027	0.000673
358.4946	0.000820
361.2888	0.000673
364.0851	-0.000255
366.8837	0.001137
369.6845	0.000884
372.4876	0.001369
375.2928	0.002107
378.1003	0.000736
380.9100	0.001432
383.7219	0.001242
386.5359	-0.000297
389.3522	0.003182
392.1706	0.004847
394.9912	0.008537
397.8140	0.010814
400.6390	0.013365
403.4661	0.015832
406.2954	0.020048
409.1269	0.020470
411.9605	0.020829
414.7962	0.021630
417.6341	0.023527
420.4741	0.024645
423.3162	0.024855
426.1605	0.022431
429.0068	0.025488
431.8553	0.024898
434.7059	0.023759
437.5586	0.024455
440.4135	0.025235
443.2703	0.026416
446.1293	0.025087
448.9904	0.022789
451.8535	0.020786
454.7188	0.017961
457.5860	0.017097
460.4554	0.015494
463.3268	0.014630
466.2003	0.013007
469.0758	0.009317
471.9533	0.010013
474.8329	0.009760
477.7145	0.007230
480.5982	0.007483
483.4838	0.006492
486.3715	0.016738
489.2612	0.005712
492.1529	0.003814
495.0466	0.003224
497.9423	0.004384
500.8400	0.003751
503.7397	0.003814
506.6414	0.003835
509.5450	0.002001
512.4506	0.003245
515.3582	0.002170
518.2677	0.003582
521.1792	0.003034
524.0927	0.003119
527.0081	0.004679
529.9254	0.006007
532.8447	0.004278
535.7659	0.007609
538.6890	0.009001
541.6140	0.009971
544.5410	0.012037
547.4699	0.014019
550.4007	0.016169
553.3333	0.018678
556.2679	0.022810
559.2044	0.021714
562.1427	0.029937
565.0829	0.033162
568.0250	0.045011
570.9690	0.088696
573.9149	0.123926
576.8626	0.141024
579.8121	0.166451
582.7635	0.234993
585.7167	0.193501
588.6718	0.168095
591.6288	0.107734
594.5875	0.143217
597.5481	0.121480
600.5105	0.150406
603.4747	0.149774
606.4407	0.143997
609.4085	0.114101
612.3781	0.106385
615.3495	0.102421
618.3227	0.091479
621.2977	0.066896
624.2745	0.072588
627.2530	0.055827
630.2333	0.052032
633.2154	0.035713
636.1992	0.035608
639.1848	0.034997
642.1721	0.027334
645.1612	0.024663
648.1520	0.022719
651.1445	0.024355
654.1388	0.026327
657.1348	0.883078
660.1325	0.057338
663.1319	0.018269
666.1330	0.020720
669.1359	0.017476
672.1404	0.025762
675.1466	0.022578
678.1545	0.024413
681.1641	0.027238
684.1754	0.026563
687.1883	0.034364
690.2029	0.028798
693.2192	0.029051
696.2371	0.024645
699.2567	0.031750
702.2779	0.025361
705.3008	0.020744
708.3253	0.030906
711.3514	0.027617
714.3791	0.029051
717.4085	0.020639
720.4395	0.022684
723.4721	0.021482
726.5063	0.030063
729.5421	0.027849
732.5795	0.035334
735.6185	0.039276
738.6591	0.033521
741.7013	0.027828
744.7450	0.025973
747.7903	0.026943
750.8372	0.033963
753.8856	0.033795
756.9356	0.042333
759.9872	0.049987
763.0403	0.041870
766.0949	0.043641
769.1510	0.041195
772.2087	0.036009
775.2679	0.027069
778.3287	0.021798
781.3909	0.026626
784.4547	0.026648
787.5199	0.023801
790.5867	0.022030
793.6550	0.020344
796.7247	0.020323
799.7959	0.018214
802.8686	0.015031
805.9428	0.015284
809.0185	0.020238
812.0956	0.013787
815.1742	0.013154
818.2542	0.011636
821.3357	0.013555
824.4186	0.010350
827.5029	0.012142
830.5887	0.009907
833.6759	0.007567
836.7646	0.007588
839.8546	0.005880
842.9461	0.005459
846.0390	0.005143
849.1333	0.005311
852.2289	0.004700
855.3260	0.012374
858.4245	0.011004
861.5243	0.004531
864.6255	0.004510
867.7281	0.004489
870.8321	0.004721
873.9374	0.006049
877.0441	0.005353
880.1521	0.006998
883.2615	0.007441
886.3722	0.005079
889.4843	0.004131
892.5977	0.005290
895.7124	0.003456
898.8284	0.003793
901.9458	0.005185
905.0644	0.003350
908.1844	0.004552
911.3057	0.003878
914.4283	0.004341
917.5521	0.005164
920.6773	0.003540
923.8037	0.002760
926.9314	0.002570
930.0604	0.001242
933.1906	0.004763
936.3221	0.002233
939.4549	0.002465
942.5889	0.002001
945.7241	0.001031
948.8606	0.001221
951.9983	0.001601
955.1373	0.002338
958.2775	0.001917
961.4189	0.000104
964.5615	0.000061
967.7053	0.001537
970.8504	0.001411
973.9966	0.000757
977.1440	0.001073
980.2926	0.000399
983.4424	0.000462
986.5934	0.001390
989.7456	0.000926
992.8989	0.000926
996.0534	0.000884
999.2090	-0.000044
1002.37	0.000631
1005.52	0.000314
1008.68	0.001516
1011.84	0.000251
1015	0.000293
1018.17	0.001558
1021.33	0.000884
1023.03	-0.000002

File: spectrum_2025-06-20_08-08-22.txt
# Wavelength (nm)	Intensity (a.u.)
197.7802	0.000202
200.4334	0.000434
203.0892	0.000076
205.7475	0.000434
208.4084	0.000793
211.0718	0.000687
213.7376	0.000835
216.4060	0.000371
219.0769	0.000666
221.7503	-0.000473
224.4262	-0.000937
227.1046	0.001088
229.7855	0.000265
232.4688	-0.000156
235.1546	0.000582
237.8429	-0.000620
240.5337	0.000329
243.2269	-0.000156
245.9225	0.001046
248.6206	0.000223
251.3212	0.000118
254.0242	-0.000768
256.7296	0.000181
259.4375	0.000518
262.1477	0.000603
264.8604	0.001004
267.5755	0.001046
270.2931	-0.000768
273.0130	0.000476
275.7353	0.001025
278.4600	0.000983
281.1871	0.000076
283.9166	0.001636
286.6484	-0.000473
289.3827	-0.000030
292.1193	-0.000810
294.8582	-0.000958
297.5995	0.000603
300.3432	0.000983
303.0892	-0.000093
305.8376	0.000518
308.5883	0.000244
311.3413	0.001826
314.0967	0.000265
316.8543	0.000286
319.6143	0.000940
322.3766	0.000645
325.1412	0.000308
327.9082	-0.000367
330.6774	0.000033
333.4489	0.000603
336.2227	-0.000199
338.9987	0.001489
341.7771	0.000097
344.5577	0.001573
347.3406	0.000772
350.1257	0.000582
352.9131	-0.000114
355.7027	0.000350
358.4946	0.000540
361.2888	0.000455
364.0851	-0.001570
366.8837	0.000708
369.6845	-0.000135
372.4876	0.001383
375.2928	0.000645
378.1003	0.000308
380.9100	-0.001169
383.7219	0.001004
386.5359	0.001130
389.3522	0.003007
392.1706	0.003619
394.9912	0.007394
397.8140	0.009503
400.6390	0.014354
403.4661	0.015177
406.2954	0.017371
409.1269	0.018678
411.9605	0.019248
414.7962	0.021905
417.6341	0.022897
420.4741	0.025828
423.3162	0.025427
426.1605	0.022011
429.0068	0.023803
431.8553	0.023234
434.7059	0.024394
437.5586	0.022158
440.4135	0.021378
443.2703	0.024837
446.1293	0.023867
448.9904	0.022433
451.8535	0.020260
454.7188	0.017813
457.5860	0.017349
460.4554	0.014755
463.3268	0.014249
466.2003	0.014144
469.0758	0.009946
471.9533	0.007436
474.8329	0.007479
477.7145	0.006698
480.5982	0.008470
483.4838	0.004273
486.3715	0.013785
489.2612	0.004378
492.1529	0.004863
495.0466	0.001974
497.9423	0.003914
500.8400	0.002459
503.7397	0.003197
506.6414	0.001615
509.5450	0.003113
512.4506	0.002585
515.3582	0.003303
518.2677	0.002100
521.1792	0.002691
524.0927	0.002543
527.0081	0.001468
529.9254	0.005391
532.8447	0.004294
535.7659	0.006002
538.6890	0.006656
541.6140	0.009503
544.5410	0.012604
547.4699	0.014776
550.4007	0.015029
553.3333	0.018573
556.2679	0.020787
559.2044	0.021104
562.1427	0.026145
565.0829	0.034497
568.0250	0.047194
570.9690	0.088449
573.9149	0.127658
576.8626	0.148264
579.8121	0.162859
582.7635	0.209324
585.7167	0.192219
588.6718	0.161594
591.6288	0.107241
594.5875	0.137697
597.5481	0.122554
600.5105	0.152166
603.4747	0.151133
606.4407	0.131180
609.4085	0.106398
612.3781	0.103234
615.3495	0.105955
618.3227	0.083049
621.2977	0.060608
624.2745	0.069867
627.2530	0.056769
630.2333	0.046160
633.2154	0.036058
636.1992	0.033042
639.1848	0.033189
642.1721	0.025487
645.1612	0.020631
648.1520	0.025572
651.1445	0.021867
654.1388	0.028120
657.1348	0.704354
660.1325	0.035948
663.1319	0.015850
666.1330	0.019042
669.1359	0.016105
672.1404	0.028422
675.1466	0.022011
678.1545	0.022854
681.1641	0.027916
684.1754	0.026398
687.1883	0.035024
690.2029	0.027136
693.2192	0.031354
696.2371	0.023550
699.2567	0.027178
702.2779	0.023044
705.3008	0.020344
708.3253	0.032113
711.3514	0.025322
714.3791	0.027642
717.4085	0.023550
720.4395	0.022601
723.4721	0.022454
726.5063	0.026187
729.5421	0.028401
732.5795	0.034518
735.6185	0.038167
738.6591	0.034581
741.7013	0.027916
744.7450	0.025849
747.7903	0.025976
750.8372	0.033674
753.8856	0.034370
756.9356	0.041225
759.9872	0.049451
763.0403	0.040276
766.0949	0.042364
769.1510	0.039137
772.2087	0.032788
775.2679	0.025406
778.3287	0.020893
781.3909	0.028380
784.4547	0.023192
787.5199	0.022306
790.5867	0.020429
793.6550	0.018594
796.7247	0.018151
799.7959	0.016970
802.8686	0.014818
805.9428	0.016105
809.0185	0.018130
812.0956	0.012224
815.1742	0.013658
818.2542	0.010284
821.3357	0.011317
824.4186	0.011592
827.5029	0.010305
830.5887	0.009208
833.6759	0.007943
836.7646	0.008597
839.8546	0.006909
842.9461	0.004020
846.0390	0.005306
849.1333	0.004652
852.2289	0.005222
855.3260	0.010368
858.4245	0.006319
861.5243	0.006171
864.6255	0.004969
867.7281	0.004357
870.8321	0.005159
873.9374	0.003745
877.0441	0.005159
880.1521	0.007415
883.2615	0.005602
886.3722	0.005749
889.4843	0.003028
892.5977	0.003977
895.7124	0.003788
898.8284	0.003851
901.9458	0.003387
905.0644	0.003366
908.1844	0.004315
911.3057	0.002585
914.4283	0.002649
917.5521	0.003429
920.6773	0.002733
923.8037	0.001911
926.9314	0.001299
930.0604	0.000983
933.1906	0.001615
936.3221	0.002522
939.4549	0.000940
942.5889	0.001362
945.7241	0.000814
948.8606	0.002670
951.9983	0.002396
955.1373	0.001362
958.2775	0.001088
961.4189	0.000329
964.5615	0.000877
967.7053	0.000772
970.8504	0.000054
973.9966	-0.000431
977.1440	0.000076
980.2926	-0.001084
983.4424	0.000666
986.5934	0.000814
989.7456	-0.000452
992.8989	0.000877
996.0534	0.000308
999.2090	-0.000726
1002.37	0.001447
1005.52	0.000076
1008.68	0.001784
1011.84	0.000392
1015	0.000223
1018.17	-0.000536
1021.33	-0.000452
1023.03	-0.000262