Folder: Auto_Polymerization/Auto_Polymerization/Spectra/MRG-061-F5_spectra_while_stopped_with_alu_foil

Note: README.md
# Auto_Polymerization

[![Python 3.10](https://img.shields.io/badge/python-3.10-blue.svg)](https://www.python.org/downloads/)
[![License: MIT](https://img.shields.io/badge/License-MIT-yellow.svg)](https://opensource.org/licenses/MIT)

This repository contains the **Auto_Polymerization platform** for automated polymer synthesis and characterization.

## ğŸš€ Quick Start

### Device Testing

For testing real devices in your Auto_Polymerization platform, see the demo folder:

```bash
cd Auto_Polymerization/demo
python demo_device_test.py
```

This will guide you through testing individual devices with safe parameters.

For comprehensive device testing:

```bash
cd Auto_Polymerization/demo
python device_test_controller.py
```

ğŸ“– See [`Auto_Polymerization/demo/DEVICE_TESTING_README.md`](Auto_Polymerization/demo/DEVICE_TESTING_README.md) for detailed documentation.

## ğŸ“¦ Required Packages and Setup

### ğŸ”§ Hardware Drivers

Install drivers for the devices used in this project:

- **[Thorlabs CCS200 Spectrometer](https://www.thorlabs.com/thorproduct.cfm?partnumber=CCS200#ad-image-0)** - UV-VIS spectroscopy
- **[Thorlabs upLED Controller](https://www.thorlabs.com/thorproduct.cfm?partnumber=UPLED)** - LED control

### ğŸ Python Environment

**Python Version:** 3.10

Install the linear actuator and valves control package from the local source in editable mode:

```bash
pip install -e src/linear_actuator_and_valves/
```

### ğŸ“š Core Dependencies

```bash
pip install scipy numpy pandas matplotlib pyserial nmrglue requests pyyaml medusa-sdl
```

### ğŸ”¬ MatterLab Packages

Install from [MatterLab devices repository](https://gitlab.com/aspuru-guzik-group/self-driving-lab/devices):

#### Easy Installation (if available):
```bash
pip install matterlab_hotplates
pip install matterlab_pumps
pip install matterlab_serial_device
```

#### Manual Installation:

**Hotplates, Pumps, Serial Device:**

https://gitlab.com/aspuru-guzik-group/self-driving-lab/devices



**Spectrometers:**

- **NMR (Nanalysis Benchtop):**

  git clone https://gitlab.com/aspuru-guzik-group/self-driving-lab/devices/nmr
  cd nmr
  git checkout develop
  pip install -e .


- **UV-VIS (Thorlabs CCS200):**

  git clone https://gitlab.com/aspuru-guzik-group/self-driving-lab/devices/spectrometer
  cd spectrometer
  git checkout develop
  pip install -e .


> **Note:** If access is not public, contact Han Hao at University of Toronto.

### âš™ï¸ Configuration

**CSS200 Spectrometer DLL:**
Potentially you need to update the `DLL_FILE` value in `ccs_spectrometer.py` in the matterlab package:
The correct file path is typically: 
DLL_FILE = Path(r"C:\Program Files\IVI Foundation\VISA\Win64\Bin\TLCCS_64.dll")
#

**Arduino Setup:**
1. Install Arduino IDE on your PC
2. Upload the Arduino code from `users/setup/` to your Arduino board
3. An overview of the hardware connections of the GPIO pins is given in "Arduino_contacts_overview_2025_06_27_bb.jpg"
## âš ï¸ Important Notes



## ğŸ“ Project Struc

File: spectrum_2025-06-20_09-11-47.txt
# Wavelength (nm)	Intensity (a.u.)
197.7802	-0.000677
200.4334	0.000230
203.0892	-0.000761
205.7475	-0.001458
208.4084	0.000294
211.0718	-0.001141
213.7376	-0.000128
216.4060	-0.000656
219.0769	0.000336
221.7503	-0.000403
224.4262	-0.000529
227.1046	-0.000276
229.7855	-0.000297
232.4688	-0.000888
235.1546	-0.000382
237.8429	-0.000804
240.5337	-0.000445
243.2269	0.000146
245.9225	-0.000719
248.6206	0.000420
251.3212	-0.000719
254.0242	0.000652
256.7296	0.000589
259.4375	-0.000339
262.1477	0.000779
264.8604	-0.000255
267.5755	0.001538
270.2931	-0.002048
273.0130	-0.000171
275.7353	-0.000550
278.4600	0.000294
281.1871	-0.000023
283.9166	0.000378
286.6484	-0.000213
289.3827	-0.000360
292.1193	0.000336
294.8582	0.000062
297.5995	0.000062
300.3432	0.001349
303.0892	0.000441
305.8376	0.000336
308.5883	0.000673
311.3413	-0.000107
314.0967	0.000884
316.8543	0.001349
319.6143	-0.001141
322.3766	0.000547
325.1412	0.000125
327.9082	0.001327
330.6774	-0.000656
333.4489	-0.001162
336.2227	-0.000149
338.9987	0.001011
341.7771	-0.000339
344.5577	-0.000171
347.3406	-0.000192
350.1257	0.000484
352.9131	-0.000360
355.7027	-0.000656
358.4946	-0.000698
361.2888	0.000863
364.0851	-0.000846
366.8837	-0.000339
369.6845	-0.000614
372.4876	0.001306
375.2928	-0.001563
378.1003	-0.000086
380.9100	0.000040
383.7219	0.001032
386.5359	0.000695
389.3522	0.002783
392.1706	0.004598
394.9912	0.008607
397.8140	0.010189
400.6390	0.015844
403.4661	0.017004
406.2954	0.017827
409.1269	0.019768
411.9605	0.019853
414.7962	0.022511
417.6341	0.022089
420.4741	0.022659
423.3162	0.028208
426.1605	0.022300
429.0068	0.024600
431.8553	0.025423
434.7059	0.023629
437.5586	0.021963
440.4135	0.023904
443.2703	0.025402
446.1293	0.024516
448.9904	0.024431
451.8535	0.019916
454.7188	0.017257
457.5860	0.017046
460.4554	0.017152
463.3268	0.013628
466.2003	0.012447
469.0758	0.008797
471.9533	0.006877
474.8329	0.008354
477.7145	0.006877
480.5982	0.008902
483.4838	0.005505
486.3715	0.015126
489.2612	0.003079
492.1529	0.003142
495.0466	0.003121
497.9423	0.004324
500.8400	0.002425
503.7397	0.002003
506.6414	0.002804
509.5450	0.002256
512.4506	0.002045
515.3582	0.001982
518.2677	0.002298
521.1792	0.001560
524.0927	0.003775
527.0081	0.004619
529.9254	0.005146
532.8447	0.005041
535.7659	0.006497
538.6890	0.008037
541.6140	0.010717
544.5410	0.011371
547.4699	0.013882
550.4007	0.015274
553.3333	0.019051
556.2679	0.021984
559.2044	0.022195
562.1427	0.030571
565.0829	0.034559
568.0250	0.046628
570.9690	0.096148
573.9149	0.130054
576.8626	0.155099
579.8121	0.171156
582.7635	0.220803
585.7167	0.197509
588.6718	0.166493
591.6288	0.111951
594.5875	0.141638
597.5481	0.125666
600.5105	0.152778
603.4747	0.159298
606.4407	0.138705
609.4085	0.111803
612.3781	0.109947
615.3495	0.109926
618.3227	0.090303
621.2977	0.062579
624.2745	0.071187
627.2530	0.056840
630.2333	0.051607
633.2154	0.038715
636.1992	0.036795
639.1848	0.035044
642.1721	0.027908
645.1612	0.023740
648.1520	0.026972
651.1445	0.024799
654.1388	0.028116
657.1348	0.730026
660.1325	0.039470
663.1319	0.019125
666.1330	0.019119
669.1359	0.017405
672.1404	0.029136
675.1466	0.021161
678.1545	0.024051
681.1641	0.027997
684.1754	0.029706
687.1883	0.036563
690.2029	0.029685
693.2192	0.034285
696.2371	0.023967
699.2567	0.030845
702.2779	0.024959
705.3008	0.018882
708.3253	0.032597
711.3514	0.026372
714.3791	0.030212
717.4085	0.022068
720.4395	0.023566
723.4721	0.024684
726.5063	0.029073
729.5421	0.029875
732.5795	0.033631
735.6185	0.039159
738.6591	0.032259
741.7013	0.030529
744.7450	0.025212
747.7903	0.026140
750.8372	0.031837
753.8856	0.033715
756.9356	0.042661
759.9872	0.050004
763.0403	0.041353
766.0949	0.044539
769.1510	0.039243
772.2087	0.034242
775.2679	0.026668
778.3287	0.022617
781.3909	0.031436
784.4547	0.026077
787.5199	0.025571
790.5867	0.021498
793.6550	0.019958
796.7247	0.017658
799.7959	0.018629
802.8686	0.012932
805.9428	0.015738
809.0185	0.018692
812.0956	0.014789
815.1742	0.014219
818.2542	0.010653
821.3357	0.012869
824.4186	0.007636
827.5029	0.010442
830.5887	0.007045
833.6759	0.007868
836.7646	0.005611
839.8546	0.006813
842.9461	0.005104
846.0390	0.004935
849.1333	0.002847
852.2289	0.006180
855.3260	0.011835
858.4245	0.008396
861.5243	0.006054
864.6255	0.004914
867.7281	0.005062
870.8321	0.003817
873.9374	0.003374
877.0441	0.005927
880.1521	0.005315
883.2615	0.005864
886.3722	0.004598
889.4843	0.003015
892.5977	0.005231
895.7124	0.004092
898.8284	0.002699
901.9458	0.002720
905.0644	0.004218
908.1844	0.002108
911.3057	0.001918
914.4283	0.003437
917.5521	0.004281
920.6773	0.003037
923.8037	0.003079
926.9314	0.000779
930.0604	0.001834
933.1906	0.000863
936.3221	-0.000149
939.4549	0.001560
942.5889	0.000863
945.7241	0.001117
948.8606	-0.001057
951.9983	0.001264
955.1373	0.000420
958.2775	0.000673
961.4189	-0.000002
964.5615	0.000695
967.7053	0.001053
970.8504	0.000610
973.9966	0.000737
977.1440	0.000019
980.2926	0.000336
983.4424	-0.000065
986.5934	0.000251
989.7456	-0.000023
992.8989	-0.000930
996.0534	-0.000424
999.2090	-0.002280
1002.37	-0.000297
1005.52	-0.000635
1008.68	-0.000825
1011.84	0.000167
1015	0.000125
1018.17	0.000251
1021.33	0.000547
1023.03	0.000990

File: spectrum_2025-06-20_09-22-00.txt
# Wavelength (nm)	Intensity (a.u.)
197.7802	-0.000334
200.4334	-0.000460
203.0892	0.000025
205.7475	0.001627
208.4084	0.001100
211.0718	0.000868
213.7376	0.001901
216.4060	0.001669
219.0769	0.000446
221.7503	0.000193
224.4262	0.001648
227.1046	0.000362
229.7855	0.001627
232.4688	0.000088
235.1546	0.000130
237.8429	-0.000060
240.5337	-0.000503
243.2269	0.002407
245.9225	0.002766
248.6206	-0.000292
251.3212	0.001163
254.0242	0.001226
256.7296	0.001669
259.4375	0.000025
262.1477	0.001058
264.8604	0.001226
267.5755	0.000910
270.2931	0.000025
273.0130	0.001690
275.7353	0.000383
278.4600	0.001543
281.1871	0.000320
283.9166	0.000446
286.6484	-0.000292
289.3827	0.001374
292.1193	0.000067
294.8582	0.001416
297.5995	0.000573
300.3432	0.000573
303.0892	0.000784
305.8376	0.001353
308.5883	0.000720
311.3413	0.001184
314.0967	0.001100
316.8543	0.000910
319.6143	-0.000376
322.3766	0.001711
325.1412	0.001543
327.9082	0.000868
330.6774	0.000973
333.4489	0.001353
336.2227	0.000257
338.9987	0.001986
341.7771	-0.000439
344.5577	0.000446
347.3406	-0.000713
350.1257	0.000742
352.9131	0.000257
355.7027	0.001184
358.4946	0.000320
361.2888	-0.000228
364.0851	-0.000334
366.8837	-0.000165
369.6845	0.000847
372.4876	0.000193
375.2928	0.000995
378.1003	0.001733
380.9100	0.000278
383.7219	0.000826
386.5359	0.001458
389.3522	0.002007
392.1706	0.004579
394.9912	0.006456
397.8140	0.009703
400.6390	0.011411
403.4661	0.014827
406.2954	0.016766
409.1269	0.015986
411.9605	0.020035
414.7962	0.020161
417.6341	0.020836
420.4741	0.023725
423.3162	0.026318
426.1605	0.023429
429.0068	0.023071
431.8553	0.024210
434.7059	0.023240
437.5586	0.023429
440.4135	0.022818
443.2703	0.026381
446.1293	0.024652
448.9904	0.021848
451.8535	0.018306
454.7188	0.017462
457.5860	0.016661
460.4554	0.014974
463.3268	0.014004
466.2003	0.012085
469.0758	0.011390
471.9533	0.008121
474.8329	0.008185
477.7145	0.005760
480.5982	0.007130
483.4838	0.004200
486.3715	0.014890
489.2612	0.004600
492.1529	0.004453
495.0466	0.003145
497.9423	0.003166
500.8400	0.003672
503.7397	0.002850
506.6414	0.002049
509.5450	0.002070
512.4506	0.002112
515.3582	0.003462
518.2677	0.003462
521.1792	0.002091
524.0927	0.005950
527.0081	0.005191
529.9254	0.005001
532.8447	0.003736
535.7659	0.007615
538.6890	0.008353
541.6140	0.009597
544.5410	0.014025
547.4699	0.014616
550.4007	0.015944
553.3333	0.018432
556.2679	0.021869
559.2044	0.022312
562.1427	0.029080
565.0829	0.035891
568.0250	0.046455
570.9690	0.094846
573.9149	0.130079
576.8626	0.155087
579.8121	0.171807
582.7635	0.219756
585.7167	0.200779
588.6718	0.169340
591.6288	0.113696
594.5875	0.147918
597.5481	0.126115
600.5105	0.156774
603.4747	0.157575
606.4407	0.138492
609.4085	0.112178
612.3781	0.110449
615.3495	0.105958
618.3227	0.091514
621.2977	0.064778
624.2745	0.074815
627.2530	0.059064
630.2333	0.051895
633.2154	0.038126
636.1992	0.035617
639.1848	0.034225
642.1721	0.026088
645.1612	0.023954
648.1520	0.026104
651.1445	0.026533
654.1388	0.026995
657.1348	0.730077
660.1325	0.038474
663.1319	0.017204
666.1330	0.021839
669.1359	0.018748
672.1404	0.029165
675.1466	0.024041
678.1545	0.024589
681.1641	0.029882
684.1754	0.031842
687.1883	0.036798
690.2029	0.028553
693.2192	0.033614
696.2371	0.025622
699.2567	0.031189
702.2779	0.025643
705.3008	0.021806
708.3253	0.035195
711.3514	0.028153
714.3791	0.031315
717.4085	0.023282
720.4395	0.023134
723.4721	0.025137
726.5063	0.029671
729.5421	0.031315
732.5795	0.032159
735.6185	0.040382
738.6591	0.033888
741.7013	0.029734
744.7450	0.025011
747.7903	0.027162
750.8372	0.032939
753.8856	0.035448
756.9356	0.042976
759.9872	0.050819
763.0403	0.041415
766.0949	0.042111
769.1510	0.041036
772.2087	0.035427
775.2679	0.025327
778.3287	0.022502
781.3909	0.027984
784.4547	0.026634
787.5199	0.025770
790.5867	0.021595
793.6550	0.020815
796.7247	0.018896
799.7959	0.017821
802.8686	0.014363
805.9428	0.017652
809.0185	0.017989
812.0956	0.013393
815.1742	0.014194
818.2542	0.013245
821.3357	0.011685
824.4186	0.008564
827.5029	0.013182
830.5887	0.008480
833.6759	0.009007
836.7646	0.006498
839.8546	0.007088
842.9461	0.006645
846.0390	0.005233
849.1333	0.004326
852.2289	0.005760
855.3260	0.011685
858.4245	0.009091
861.5243	0.006772
864.6255	0.006118
867.7281	0.006076
870.8321	0.004706
873.9374	0.003567
877.0441	0.004495
880.1521	0.007236
883.2615	0.006203
886.3722	0.006224
889.4843	0.005169
892.5977	0.005781
895.7124	0.003525
898.8284	0.004284
901.9458	0.005064
905.0644	0.005422
908.1844	0.004073
911.3057	0.003693
914.4283	0.003208
917.5521	0.004474
920.6773	0.001690
923.8037	0.003208
926.9314	0.001501
930.0604	0.002091
933.1906	0.003546
936.3221	0.002028
939.4549	0.002681
942.5889	0.001311
945.7241	0.002217
948.8606	0.000151
951.9983	0.002070
955.1373	0.001901
958.2775	0.000973
961.4189	0.001269
964.5615	0.002407
967.7053	0.001374
970.8504	0.001458
973.9966	-0.000039
977.1440	0.001416
980.2926	0.001353
983.4424	0.000467
986.5934	0.000973
989.7456	0.001226
992.8989	0.000847
996.0534	0.000172
999.2090	-0.000481
1002.37	0.001163
1005.52	0.000404
1008.68	0.000889
1011.84	0.001416
1015	0.001248
1018.17	0.000615
1021.33	0.000404
1023.03	0.000995

File: spectrum_2025-06-20_09-37-21.txt
# Wavelength (nm)	Intensity (a.u.)
197.7802	0.000768
200.4334	0.000241
203.0892	0.000220
205.7475	0.000557
208.4084	-0.000139
211.0718	0.000220
213.7376	-0.000118
216.4060	0.000852
219.0769	0.001000
221.7503	-0.000054
224.4262	0.000178
227.1046	0.001105
229.7855	0.001063
232.4688	0.000283
235.1546	0.000937
237.8429	0.000262
240.5337	-0.000076
243.2269	-0.000413
245.9225	0.001148
248.6206	-0.000413
251.3212	0.000030
254.0242	0.000473
256.7296	-0.000687
259.4375	0.001021
262.1477	0.000325
264.8604	0.000831
267.5755	0.000494
270.2931	-0.000666
273.0130	0.001021
275.7353	0.000304
278.4600	0.001105
281.1871	0.001696
283.9166	0.000431
286.6484	0.000051
289.3827	-0.000033
292.1193	0.001401
294.8582	0.000578
297.5995	0.000178
300.3432	0.000663
303.0892	0.000578
305.8376	0.000831
308.5883	0.000009
311.3413	0.001253
314.0967	0.000452
316.8543	0.001169
319.6143	-0.000371
322.3766	0.000599
325.1412	-0.000160
327.9082	0.001148
330.6774	0.000852
333.4489	0.001443
336.2227	0.001232
338.9987	0.002287
341.7771	0.000304
344.5577	0.000009
347.3406	-0.000687
350.1257	0.001232
352.9131	-0.000518
355.7027	0.000831
358.4946	-0.000033
361.2888	0.002118
364.0851	0.001042
366.8837	-0.001236
369.6845	0.000178
372.4876	0.001295
375.2928	0.000663
378.1003	0.000325
380.9100	0.000937
383.7219	0.000810
386.5359	0.000494
389.3522	0.002012
392.1706	0.003130
394.9912	0.004185
397.8140	0.005724
400.6390	0.009267
403.4661	0.010364
406.2954	0.011440
409.1269	0.012494
411.9605	0.014076
414.7962	0.013696
417.6341	0.017387
420.4741	0.019602
423.3162	0.021964
426.1605	0.015826
429.0068	0.021015
431.8553	0.020234
434.7059	0.019559
437.5586	0.021415
440.4135	0.021057
443.2703	0.023672
446.1293	0.023588
448.9904	0.019433
451.8535	0.018885
454.7188	0.018062
457.5860	0.016944
460.4554	0.015953
463.3268	0.012579
466.2003	0.012304
469.0758	0.010617
471.9533	0.007475
474.8329	0.007812
477.7145	0.007011
480.5982	0.007390
483.4838	0.005640
486.3715	0.013802
489.2612	0.003193
492.1529	0.004396
495.0466	0.003025
497.9423	0.002076
500.8400	0.003510
503.7397	0.004016
506.6414	0.002055
509.5450	0.002308
512.4506	0.002519
515.3582	0.002519
518.2677	0.002645
521.1792	0.002687
524.0927	0.003320
527.0081	0.002961
529.9254	0.004227
532.8447	0.006251
535.7659	0.007327
538.6890	0.008487
541.6140	0.010448
544.5410	0.011819
547.4699	0.014751
550.4007	0.013338
553.3333	0.019433
556.2679	0.022301
559.2044	0.021500
562.1427	0.028375
565.0829	0.033163
568.0250	0.048601
570.9690	0.094303
573.9149	0.126845
576.8626	0.151689
579.8121	0.171767
582.7635	0.215529
585.7167	0.195789
588.6718	0.165061
591.6288	0.108476
594.5875	0.144730
597.5481	0.123175
600.5105	0.152406
603.4747	0.157531
606.4407	0.140132
609.4085	0.114887
612.3781	0.110036
615.3495	0.106620
618.3227	0.091308
621.2977	0.063322
624.2745	0.072622
627.2530	0.059040
630.2333	0.051005
633.2154	0.039279
636.1992	0.038604
639.1848	0.036305
642.1721	0.025312
645.1612	0.024122
648.1520	0.024076
651.1445	0.023990
654.1388	0.030373
657.1348	0.738367
660.1325	0.041564
663.1319	0.018096
666.1330	0.019814
669.1359	0.016016
672.1404	0.027679
675.1466	0.022301
678.1545	0.025992
681.1641	0.029261
684.1754	0.028776
687.1883	0.037802
690.2029	0.031391
693.2192	0.033648
696.2371	0.025633
699.2567	0.029767
702.2779	0.026604
705.3008	0.021668
708.3253	0.034850
711.3514	0.026245
714.3791	0.028923
717.4085	0.023440
720.4395	0.024389
723.4721	0.022934
726.5063	0.027932
729.5421	0.031855
732.5795	0.034069
735.6185	0.041662
738.6591	0.034871
741.7013	0.028713
744.7450	0.026836
747.7903	0.025950
750.8372	0.033669
753.8856	0.037507
756.9356	0.043455
759.9872	0.052587
763.0403	0.041324
766.0949	0.042252
769.1510	0.040860
772.2087	0.035862
775.2679	0.025317
778.3287	0.022428
781.3909	0.030442
784.4547	0.026709
787.5199	0.025317
790.5867	0.021099
793.6550	0.019538
796.7247	0.018716
799.7959	0.017809
802.8686	0.014245
805.9428	0.016480
809.0185	0.020804
812.0956	0.013992
815.1742	0.014245
818.2542	0.011714
821.3357	0.013127
824.4186	0.010575
827.5029	0.012895
830.5887	0.010280
833.6759	0.007770
836.7646	0.006062
839.8546	0.006188
842.9461	0.002687
846.0390	0.004543
849.1333	0.004986
852.2289	0.004754
855.3260	0.011187
858.4245	0.009352
861.5243	0.005682
864.6255	0.005408
867.7281	0.004480
870.8321	0.005809
873.9374	0.005113
877.0441	0.005345
880.1521	0.007981
883.2615	0.004754
886.3722	0.006336
889.4843	0.004606
892.5977	0.004881
895.7124	0.003088
898.8284	0.004649
901.9458	0.005809
905.0644	0.004374
908.1844	0.004142
911.3057	0.003130
914.4283	0.002350
917.5521	0.005092
920.6773	0.002793
923.8037	0.003889
926.9314	0.001844
930.0604	0.002118
933.1906	0.002350
936.3221	0.001886
939.4549	0.002434
942.5889	0.000810
945.7241	0.002223
948.8606	-0.000244
951.9983	0.001612
955.1373	0.001063
958.2775	0.001021
961.4189	0.000895
964.5615	0.000895
967.7053	0.000093
970.8504	-0.000160
973.9966	0.002055
977.1440	0.001591
980.2926	0.000388
983.4424	0.002097
986.5934	0.000895
989.7456	0.001949
992.8989	-0.000223
996.0534	-0.000750
999.2090	0.000220
1002.37	0.001105
1005.52	0.000810
1008.68	0.000051
1011.84	-0.000708
1015	0.000346
1018.17	-0.000329
1021.33	0.001105
1023.03	0.000578

File: spectrum_2025-06-20_09-42-28.txt
# Wavelength (nm)	Intensity (a.u.)
197.7802	-0.000303
200.4334	-0.001126
203.0892	-0.000746
205.7475	-0.000936
208.4084	-0.000809
211.0718	0.000415
213.7376	-0.000007
216.4060	0.000521
219.0769	0.000141
221.7503	-0.000155
224.4262	0.000183
227.1046	0.000732
229.7855	0.000310
232.4688	0.001175
235.1546	0.000816
237.8429	0.000267
240.5337	0.001428
243.2269	0.001386
245.9225	0.000605
248.6206	-0.000366
251.3212	-0.000134
254.0242	-0.001210
256.7296	0.000141
259.4375	-0.000197
262.1477	0.000035
264.8604	-0.000788
267.5755	-0.001104
270.2931	0.000310
273.0130	-0.000324
275.7353	-0.000218
278.4600	0.001238
281.1871	0.001069
283.9166	-0.000113
286.6484	0.000141
289.3827	0.001069
292.1193	-0.001189
294.8582	-0.000028
297.5995	-0.001210
300.3432	0.000626
303.0892	-0.000514
305.8376	-0.000809
308.5883	-0.001231
311.3413	0.001323
314.0967	-0.001421
316.8543	0.000162
319.6143	-0.000197
322.3766	0.000837
325.1412	0.000310
327.9082	0.000795
330.6774	-0.000070
333.4489	0.000668
336.2227	0.000331
338.9987	-0.000366
341.7771	0.000542
344.5577	0.001048
347.3406	0.001724
350.1257	0.000457
352.9131	-0.000387
355.7027	0.000605
358.4946	-0.000471
361.2888	0.000267
364.0851	0.000246
366.8837	-0.000957
369.6845	-0.000767
372.4876	0.000267
375.2928	-0.000260
378.1003	-0.000303
380.9100	-0.001231
383.7219	-0.000176
386.5359	0.000098
389.3522	0.000816
392.1706	0.002230
394.9912	0.002526
397.8140	0.006451
400.6390	0.006620
403.4661	0.008097
406.2954	0.009891
409.1269	0.012086
411.9605	0.011959
414.7962	0.014260
417.6341	0.014471
420.4741	0.016349
423.3162	0.018734
426.1605	0.017911
429.0068	0.020296
431.8553	0.019198
434.7059	0.016370
437.5586	0.018987
440.4135	0.016244
443.2703	0.024390
446.1293	0.023229
448.9904	0.020359
451.8535	0.017805
454.7188	0.014429
457.5860	0.015357
460.4554	0.013943
463.3268	0.012107
466.2003	0.011791
469.0758	0.008329
471.9533	0.006282
474.8329	0.007548
477.7145	0.005881
480.5982	0.006240
483.4838	0.005058
486.3715	0.013458
489.2612	0.003306
492.1529	0.002568
495.0466	0.002779
497.9423	0.000964
500.8400	0.002483
503.7397	0.002884
506.6414	0.001555
509.5450	0.001301
512.4506	0.002715
515.3582	0.003391
518.2677	0.002631
521.1792	0.000732
524.0927	0.002737
527.0081	0.003560
529.9254	0.004362
532.8447	0.004678
535.7659	0.006113
538.6890	0.007000
541.6140	0.009427
544.5410	0.011833
547.4699	0.013479
550.4007	0.013542
553.3333	0.018671
556.2679	0.022849
559.2044	0.021879
562.1427	0.026859
565.0829	0.032347
568.0250	0.046656
570.9690	0.091693
573.9149	0.128394
576.8626	0.145785
579.8121	0.173158
582.7635	0.217456
585.7167	0.195170
588.6718	0.162162
591.6288	0.110582
594.5875	0.143252
597.5481	0.126326
600.5105	0.152686
603.4747	0.157814
606.4407	0.134578
609.4085	0.110899
612.3781	0.106255
615.3495	0.106108
618.3227	0.089773
621.2977	0.060965
624.2745	0.071095
627.2530	0.058284
630.2333	0.050032
633.2154	0.038784
636.1992	0.035027
639.1848	0.034900
642.1721	0.025739
645.1612	0.022373
648.1520	0.022715
651.1445	0.021989
654.1388	0.027287
657.1348	0.739136
660.1325	0.038159
663.1319	0.016788
666.1330	0.020799
669.1359	0.016455
672.1404	0.026543
675.1466	0.021013
678.1545	0.023799
681.1641	0.029160
684.1754	0.029877
687.1883	0.038615
690.2029	0.028337
693.2192	0.032347
696.2371	0.025466
699.2567	0.030532
702.2779	0.024200
705.3008	0.018650
708.3253	0.032726
711.3514	0.026078
714.3791	0.028231
717.4085	0.021963
720.4395	0.024622
723.4721	0.024686
726.5063	0.025340
729.5421	0.031967
732.5795	0.034035
735.6185	0.041063
738.6591	0.034668
741.7013	0.028463
744.7450	0.024749
747.7903	0.026564
750.8372	0.034056
753.8856	0.036863
756.9356	0.043933
759.9872	0.051299
763.0403	0.042582
766.0949	0.042920
769.1510	0.040535
772.2087	0.033043
775.2679	0.028062
778.3287	0.021921
781.3909	0.030131
784.4547	0.024791
787.5199	0.022364
790.5867	0.019726
793.6550	0.020676
796.7247	0.018249
799.7959	0.016096
802.8686	0.012846
805.9428	0.016729
809.0185	0.019114
812.0956	0.012529
815.1742	0.014091
818.2542	0.012297
821.3357	0.012339
824.4186	0.008308
827.5029	0.011685
830.5887	0.008498
833.6759	0.008836
836.7646	0.006198
839.8546	0.006831
842.9461	0.004341
846.0390	0.004889
849.1333	0.003665
852.2289	0.005987
855.3260	0.010545
858.4245	0.007042
861.5243	0.004720
864.6255	0.004742
867.7281	0.003391
870.8321	0.004214
873.9374	0.004573
877.0441	0.003517
880.1521	0.008013
883.2615	0.003982
886.3722	0.005079
889.4843	0.003180
892.5977	0.003665
895.7124	0.003729
898.8284	0.003074
901.9458	0.004172
905.0644	0.004446
908.1844	0.005248
911.3057	0.004699
914.4283	0.001069
917.5521	0.004720
920.6773	0.002694
923.8037	0.003116
926.9314	0.001344
930.0604	0.002462
933.1906	0.001407
936.3221	0.002969
939.4549	0.000584
942.5889	0.001323
945.7241	0.001850
948.8606	-0.001062
951.9983	0.001301
955.1373	-0.000619
958.2775	0.001365
961.4189	0.000457
964.5615	-0.000577
967.7053	0.000352
970.8504	-0.000218
973.9966	0.000985
977.1440	0.000521
980.2926	-0.000682
983.4424	-0.000197
986.5934	-0.000725
989.7456	0.000183
992.8989	0.001238
996.0534	0.001555
999.2090	-0.001463
1002.37	-0.000007
1005.52	0.000732
1008.68	0.000310
1011.84	-0.000260
1015	-0.000682
1018.17	-0.000809
1021.33	0.000732
1023.03	0.000267