Folder: Auto_Polymerization/Auto_Polymerization/Spectra/MRG-061-F-4_spectra_while_stopped_no_alu_foil

Note: README.md
# Auto_Polymerization

[![Python 3.10](https://img.shields.io/badge/python-3.10-blue.svg)](https://www.python.org/downloads/)
[![License: MIT](https://img.shields.io/badge/License-MIT-yellow.svg)](https://opensource.org/licenses/MIT)

This repository contains the **Auto_Polymerization platform** for automated polymer synthesis and characterization.

## ğŸš€ Quick Start

### Device Testing

For testing real devices in your Auto_Polymerization platform, see the demo folder:

```bash
cd Auto_Polymerization/demo
python demo_device_test.py
```

This will guide you through testing individual devices with safe parameters.

For comprehensive device testing:

```bash
cd Auto_Polymerization/demo
python device_test_controller.py
```

ğŸ“– See [`Auto_Polymerization/demo/DEVICE_TESTING_README.md`](Auto_Polymerization/demo/DEVICE_TESTING_README.md) for detailed documentation.

## ğŸ“¦ Required Packages and Setup

### ğŸ”§ Hardware Drivers

Install drivers for the devices used in this project:

- **[Thorlabs CCS200 Spectrometer](https://www.thorlabs.com/thorproduct.cfm?partnumber=CCS200#ad-image-0)** - UV-VIS spectroscopy
- **[Thorlabs upLED Controller](https://www.thorlabs.com/thorproduct.cfm?partnumber=UPLED)** - LED control

### ğŸ Python Environment

**Python Version:** 3.10

Install the linear actuator and valves control package from the local source in editable mode:

```bash
pip install -e src/linear_actuator_and_valves/
```

### ğŸ“š Core Dependencies

```bash
pip install scipy numpy pandas matplotlib pyserial nmrglue requests pyyaml medusa-sdl
```

### ğŸ”¬ MatterLab Packages

Install from [MatterLab devices repository](https://gitlab.com/aspuru-guzik-group/self-driving-lab/devices):

#### Easy Installation (if available):
```bash
pip install matterlab_hotplates
pip install matterlab_pumps
pip install matterlab_serial_device
```

#### Manual Installation:

**Hotplates, Pumps, Serial Device:**

https://gitlab.com/aspuru-guzik-group/self-driving-lab/devices



**Spectrometers:**

- **NMR (Nanalysis Benchtop):**

  git clone https://gitlab.com/aspuru-guzik-group/self-driving-lab/devices/nmr
  cd nmr
  git checkout develop
  pip install -e .


- **UV-VIS (Thorlabs CCS200):**

  git clone https://gitlab.com/aspuru-guzik-group/self-driving-lab/devices/spectrometer
  cd spectrometer
  git checkout develop
  pip install -e .


> **Note:** If access is not public, contact Han Hao at University of Toronto.

### âš™ï¸ Configuration

**CSS200 Spectrometer DLL:**
Potentially you need to update the `DLL_FILE` value in `ccs_spectrometer.py` in the matterlab package:
The correct file path is typically: 
DLL_FILE = Path(r"C:\Program Files\IVI Foundation\VISA\Win64\Bin\TLCCS_64.dll")
#

**Arduino Setup:**
1. Install Arduino IDE on your PC
2. Upload the Arduino code from `users/setup/` to your Arduino board
3. An overview of the hardware connections of the GPIO pins is given in "Arduino_contacts_overview_2025_06_27_bb.jpg"
## âš ï¸ Important Notes



## ğŸ“ Project Struc

File: spectrum_2025-06-20_07-53-01.txt
# Wavelength (nm)	Intensity (a.u.)
197.7802	0.000888
200.4334	-0.000167
203.0892	0.000993
205.7475	0.001521
208.4084	-0.000357
211.0718	0.000276
213.7376	0.000867
216.4060	-0.000040
219.0769	0.000255
221.7503	0.000044
224.4262	-0.000652
227.1046	0.000993
229.7855	0.001668
232.4688	-0.000040
235.1546	-0.000547
237.8429	0.000677
240.5337	0.000508
243.2269	-0.000568
245.9225	0.000951
248.6206	0.000297
251.3212	0.001204
254.0242	-0.000884
256.7296	0.000171
259.4375	0.000656
262.1477	0.000149
264.8604	0.000656
267.5755	-0.000272
270.2931	0.000466
273.0130	0.001985
275.7353	0.000339
278.4600	-0.000526
281.1871	0.000656
283.9166	-0.000610
286.6484	0.000339
289.3827	-0.000294
292.1193	-0.001032
294.8582	0.001499
297.5995	-0.000272
300.3432	0.001542
303.0892	0.000698
305.8376	0.000803
308.5883	0.000466
311.3413	0.001310
314.0967	0.000656
316.8543	0.001352
319.6143	0.000867
322.3766	0.001183
325.1412	0.000909
327.9082	0.000677
330.6774	0.000339
333.4489	0.001267
336.2227	-0.000737
338.9987	0.001373
341.7771	-0.000062
344.5577	0.001310
347.3406	-0.000631
350.1257	0.000318
352.9131	-0.000715
355.7027	0.001162
358.4946	0.001394
361.2888	0.000740
364.0851	-0.000526
366.8837	-0.000547
369.6845	-0.000336
372.4876	0.000782
375.2928	-0.000125
378.1003	0.000824
380.9100	0.000508
383.7219	-0.000083
386.5359	0.000276
389.3522	0.002702
392.1706	0.003313
394.9912	0.008566
397.8140	0.011540
400.6390	0.015232
403.4661	0.017299
406.2954	0.017742
409.1269	0.020821
411.9605	0.020421
414.7962	0.023838
417.6341	0.022741
420.4741	0.026559
423.3162	0.025778
426.1605	0.022825
429.0068	0.023437
431.8553	0.025694
434.7059	0.024576
437.5586	0.021961
440.4135	0.023163
443.2703	0.022868
446.1293	0.025125
448.9904	0.021728
451.8535	0.018796
454.7188	0.015949
457.5860	0.016750
460.4554	0.014599
463.3268	0.012510
466.2003	0.011857
469.0758	0.008840
471.9533	0.006836
474.8329	0.007785
477.7145	0.007026
480.5982	0.005929
483.4838	0.003567
486.3715	0.015464
489.2612	0.003060
492.1529	0.002681
495.0466	0.004326
497.9423	0.002364
500.8400	0.001394
503.7397	0.004558
506.6414	0.002681
509.5450	0.002090
512.4506	0.001710
515.3582	0.001605
518.2677	0.000761
521.1792	0.003714
524.0927	0.003820
527.0081	0.003588
529.9254	0.005022
532.8447	0.005528
535.7659	0.006393
538.6890	0.007975
541.6140	0.008228
544.5410	0.012616
547.4699	0.014852
550.4007	0.013966
553.3333	0.018902
556.2679	0.022889
559.2044	0.020610
562.1427	0.027951
565.0829	0.034975
568.0250	0.045691
570.9690	0.091191
573.9149	0.127514
576.8626	0.146351
579.8121	0.165673
582.7635	0.215982
585.7167	0.194487
588.6718	0.159851
591.6288	0.105113
594.5875	0.137893
597.5481	0.120722
600.5105	0.146963
603.4747	0.151751
606.4407	0.130531
609.4085	0.108024
612.3781	0.102729
615.3495	0.103235
618.3227	0.086803
621.2977	0.056913
624.2745	0.069949
627.2530	0.053559
630.2333	0.049572
633.2154	0.036178
636.1992	0.033604
639.1848	0.032676
642.1721	0.025267
645.1612	0.020577
648.1520	0.022317
651.1445	0.022902
654.1388	0.026514
657.1348	0.700396
660.1325	0.038424
663.1319	0.017693
666.1330	0.019978
669.1359	0.016350
672.1404	0.026264
675.1466	0.021454
678.1545	0.023353
681.1641	0.027529
684.1754	0.028964
687.1883	0.036051
690.2029	0.028014
693.2192	0.032360
696.2371	0.024323
699.2567	0.030968
702.2779	0.023521
705.3008	0.019619
708.3253	0.029428
711.3514	0.025525
714.3791	0.028689
717.4085	0.022699
720.4395	0.023901
723.4721	0.021560
726.5063	0.028732
729.5421	0.027930
732.5795	0.034659
735.6185	0.039764
738.6591	0.034743
741.7013	0.025800
744.7450	0.023606
747.7903	0.023521
750.8372	0.032972
753.8856	0.034469
756.9356	0.040586
759.9872	0.048138
763.0403	0.037169
766.0949	0.042126
769.1510	0.036642
772.2087	0.033857
775.2679	0.026243
778.3287	0.019282
781.3909	0.029364
784.4547	0.025040
787.5199	0.023226
790.5867	0.020948
793.6550	0.018206
796.7247	0.018902
799.7959	0.015696
802.8686	0.012405
805.9428	0.014831
809.0185	0.017257
812.0956	0.015379
815.1742	0.011751
818.2542	0.012278
821.3357	0.014535
824.4186	0.009473
827.5029	0.011287
830.5887	0.008186
833.6759	0.007300
836.7646	0.006520
839.8546	0.005507
842.9461	0.005718
846.0390	0.004305
849.1333	0.004874
852.2289	0.005360
855.3260	0.011097
858.4245	0.008650
861.5243	0.004621
864.6255	0.004579
867.7281	0.004263
870.8321	0.004811
873.9374	0.003651
877.0441	0.003335
880.1521	0.006203
883.2615	0.005360
886.3722	0.005676
889.4843	0.005106
892.5977	0.003799
895.7124	0.004516
898.8284	0.003377
901.9458	0.005528
905.0644	0.002533
908.1844	0.004094
911.3057	0.000993
914.4283	0.001415
917.5521	0.002512
920.6773	0.003672
923.8037	0.001774
926.9314	0.001879
930.0604	0.003883
933.1906	0.000972
936.3221	0.001626
939.4549	0.000613
942.5889	0.001563
945.7241	0.000824
948.8606	0.000234
951.9983	0.000403
955.1373	0.000740
958.2775	0.001183
961.4189	0.000550
964.5615	0.001668
967.7053	0.000930
970.8504	0.001331
973.9966	0.000909
977.1440	0.001014
980.2926	-0.000842
983.4424	0.000255
986.5934	0.000128
989.7456	0.001689
992.8989	0.000930
996.0534	0.001584
999.2090	0.000677
1002.37	-0.000441
1005.52	0.001352
1008.68	-0.002108
1011.84	0.000086
1015	-0.001412
1018.17	0.000086
1021.33	0.000424
1023.03	0.000318

File: spectrum_2025-06-20_07-58-09.txt
# Wavelength (nm)	Intensity (a.u.)
197.7802	0.000933
200.4334	0.000680
203.0892	0.001608
205.7475	-0.000206
208.4084	0.000722
211.0718	0.000279
213.7376	0.000322
216.4060	0.001017
219.0769	0.001903
221.7503	0.001249
224.4262	0.001291
227.1046	0.000385
229.7855	0.000427
232.4688	-0.000269
235.1546	0.000891
237.8429	-0.000627
240.5337	0.000174
243.2269	-0.000501
245.9225	0.001924
248.6206	0.000448
251.3212	0.001038
254.0242	0.002472
256.7296	-0.000438
259.4375	0.000722
262.1477	0.000195
264.8604	0.000047
267.5755	0.000617
270.2931	-0.000037
273.0130	0.000785
275.7353	0.000153
278.4600	0.000785
281.1871	-0.000121
283.9166	-0.000606
286.6484	0.001207
289.3827	0.001481
292.1193	0.001692
294.8582	0.002367
297.5995	0.000743
300.3432	0.000870
303.0892	0.000511
305.8376	0.001144
308.5883	0.000680
311.3413	0.000364
314.0967	0.000026
316.8543	0.000532
319.6143	0.000891
322.3766	-0.000079
325.1412	-0.000501
327.9082	0.001207
330.6774	0.000364
333.4489	0.000870
336.2227	0.000195
338.9987	0.001355
341.7771	0.001081
344.5577	0.000300
347.3406	0.001291
350.1257	0.001123
352.9131	0.001270
355.7027	0.000111
358.4946	0.001713
361.2888	0.001102
364.0851	0.000237
366.8837	0.000954
369.6845	0.002451
372.4876	0.001439
375.2928	0.001587
378.1003	0.001123
380.9100	0.000807
383.7219	0.000258
386.5359	0.000448
389.3522	0.002472
392.1706	0.004518
394.9912	0.008081
397.8140	0.011159
400.6390	0.014596
403.4661	0.016325
406.2954	0.019994
409.1269	0.021154
411.9605	0.022082
414.7962	0.022039
417.6341	0.024823
420.4741	0.025308
423.3162	0.027606
426.1605	0.025835
429.0068	0.025097
431.8553	0.025160
434.7059	0.025097
437.5586	0.023305
440.4135	0.025666
443.2703	0.026383
446.1293	0.022925
448.9904	0.021301
451.8535	0.020458
454.7188	0.017907
457.5860	0.018413
460.4554	0.016810
463.3268	0.012193
466.2003	0.014849
469.0758	0.009979
471.9533	0.008819
474.8329	0.008461
477.7145	0.008271
480.5982	0.006985
483.4838	0.006500
486.3715	0.016937
489.2612	0.005804
492.1529	0.004792
495.0466	0.004644
497.9423	0.002683
500.8400	0.003758
503.7397	0.003442
506.6414	0.003780
509.5450	0.003084
512.4506	0.003484
515.3582	0.002599
518.2677	0.004370
521.1792	0.002746
524.0927	0.003548
527.0081	0.003379
529.9254	0.004834
532.8447	0.005888
535.7659	0.008186
538.6890	0.008903
541.6140	0.009515
544.5410	0.011623
547.4699	0.014069
550.4007	0.016705
553.3333	0.019256
556.2679	0.021533
559.2044	0.021786
562.1427	0.030706
565.0829	0.034227
568.0250	0.047743
570.9690	0.088163
573.9149	0.121562
576.8626	0.139801
579.8121	0.167507
582.7635	0.239514
585.7167	0.198018
588.6718	0.165673
591.6288	0.107730
594.5875	0.143744
597.5481	0.122279
600.5105	0.149986
603.4747	0.148383
606.4407	0.138431
609.4085	0.110598
612.3781	0.109734
615.3495	0.102333
618.3227	0.090672
621.2977	0.065918
624.2745	0.071400
627.2530	0.056683
630.2333	0.049703
633.2154	0.038549
636.1992	0.035450
639.1848	0.034902
642.1721	0.027493
645.1612	0.022544
648.1520	0.023035
651.1445	0.023896
654.1388	0.028339
657.1348	0.890931
660.1325	0.057414
663.1319	0.019014
666.1330	0.019806
669.1359	0.016262
672.1404	0.025666
675.1466	0.023431
678.1545	0.024338
681.1641	0.027543
684.1754	0.027437
687.1883	0.036483
690.2029	0.031043
693.2192	0.030895
696.2371	0.025139
699.2567	0.031422
702.2779	0.023642
705.3008	0.020184
708.3253	0.030663
711.3514	0.027796
714.3791	0.029356
717.4085	0.022651
720.4395	0.024127
723.4721	0.021618
726.5063	0.027754
729.5421	0.027606
732.5795	0.035260
735.6185	0.039055
738.6591	0.032413
741.7013	0.028028
744.7450	0.022883
747.7903	0.025835
750.8372	0.034100
753.8856	0.033868
756.9356	0.040363
759.9872	0.049640
763.0403	0.040173
766.0949	0.043041
769.1510	0.038992
772.2087	0.036757
775.2679	0.026763
778.3287	0.020521
781.3909	0.029040
784.4547	0.027142
787.5199	0.023136
790.5867	0.023136
793.6550	0.015883
796.7247	0.020606
799.7959	0.018371
802.8686	0.014660
805.9428	0.014575
809.0185	0.019256
812.0956	0.014006
815.1742	0.016157
818.2542	0.012256
821.3357	0.013036
824.4186	0.008039
827.5029	0.010253
830.5887	0.010379
833.6759	0.007259
836.7646	0.007849
839.8546	0.006183
842.9461	0.005509
846.0390	0.004897
849.1333	0.005340
852.2289	0.005045
855.3260	0.011982
858.4245	0.008587
861.5243	0.006605
864.6255	0.005909
867.7281	0.005509
870.8321	0.004665
873.9374	0.004265
877.0441	0.004433
880.1521	0.006732
883.2615	0.005614
886.3722	0.004454
889.4843	0.004433
892.5977	0.004707
895.7124	0.003969
898.8284	0.004011
901.9458	0.004370
905.0644	0.004159
908.1844	0.003505
911.3057	0.001566
914.4283	0.005066
917.5521	0.004834
920.6773	0.003147
923.8037	0.002114
926.9314	0.002578
930.0604	0.001734
933.1906	0.003189
936.3221	0.002831
939.4549	0.002704
942.5889	0.001776
945.7241	0.001270
948.8606	0.000743
951.9983	0.001608
955.1373	-0.000016
958.2775	0.001165
961.4189	0.000996
964.5615	0.001439
967.7053	0.001481
970.8504	0.001924
973.9966	0.001776
977.1440	0.001355
980.2926	0.002578
983.4424	0.000322
986.5934	0.000870
989.7456	0.001334
992.8989	-0.000037
996.0534	0.001671
999.2090	0.001397
1002.37	0.001165
1005.52	0.000596
1008.68	0.001523
1011.84	0.000996
1015	0.001060
1018.17	0.001186
1021.33	0.000026
1023.03	0.000427

File: spectrum_2025-06-20_08-13-29.txt
# Wavelength (nm)	Intensity (a.u.)
197.7802	0.000002
200.4334	0.000128
203.0892	0.000719
205.7475	-0.001348
208.4084	0.000550
211.0718	0.000656
213.7376	0.000846
216.4060	0.001183
219.0769	-0.000209
221.7503	-0.000378
224.4262	0.000951
227.1046	0.000044
229.7855	0.002385
232.4688	-0.000715
235.1546	0.000824
237.8429	-0.000969
240.5337	0.001521
243.2269	0.000171
245.9225	0.001056
248.6206	-0.001201
251.3212	-0.000420
254.0242	-0.001032
256.7296	-0.000737
259.4375	-0.000758
262.1477	-0.000842
264.8604	0.000107
267.5755	0.000234
270.2931	0.000065
273.0130	-0.000779
275.7353	0.000192
278.4600	0.000972
281.1871	-0.000378
283.9166	0.000255
286.6484	-0.000800
289.3827	0.001141
292.1193	-0.000652
294.8582	0.000888
297.5995	0.000107
300.3432	-0.000251
303.0892	0.000867
305.8376	0.000023
308.5883	0.001056
311.3413	0.000761
314.0967	0.001225
316.8543	-0.000104
319.6143	0.000677
322.3766	0.001731
325.1412	0.000487
327.9082	0.000065
330.6774	0.000403
333.4489	0.000360
336.2227	-0.000294
338.9987	0.002132
341.7771	-0.000209
344.5577	-0.000505
347.3406	0.000318
350.1257	0.000234
352.9131	0.000508
355.7027	0.001921
358.4946	-0.000399
361.2888	0.000044
364.0851	0.000592
366.8837	0.002153
369.6845	0.001858
372.4876	-0.001222
375.2928	-0.001158
378.1003	-0.000230
380.9100	0.000149
383.7219	-0.000294
386.5359	0.001246
389.3522	0.002196
392.1706	0.004178
394.9912	0.007954
397.8140	0.011013
400.6390	0.013945
403.4661	0.014831
406.2954	0.019324
409.1269	0.020273
411.9605	0.019029
414.7962	0.021033
417.6341	0.022467
420.4741	0.026285
423.3162	0.025779
426.1605	0.022931
429.0068	0.021370
431.8553	0.022952
434.7059	0.024281
437.5586	0.023269
440.4135	0.021413
443.2703	0.025399
446.1293	0.022404
448.9904	0.021666
451.8535	0.021075
454.7188	0.017573
457.5860	0.015801
460.4554	0.016160
463.3268	0.015274
466.2003	0.013144
469.0758	0.010549
471.9533	0.007786
474.8329	0.007153
477.7145	0.004685
480.5982	0.007743
483.4838	0.005697
486.3715	0.015169
489.2612	0.006372
492.1529	0.002385
495.0466	0.004432
497.9423	0.003799
500.8400	0.002807
503.7397	0.002153
506.6414	0.002153
509.5450	0.002048
512.4506	0.001879
515.3582	0.001584
518.2677	0.002301
521.1792	0.001563
524.0927	0.003398
527.0081	0.004094
529.9254	0.005697
532.8447	0.002533
535.7659	0.006119
538.6890	0.007300
541.6140	0.010739
544.5410	0.012658
547.4699	0.014557
550.4007	0.014451
553.3333	0.018586
556.2679	0.021623
559.2044	0.020759
562.1427	0.027720
565.0829	0.034048
568.0250	0.046958
570.9690	0.092880
573.9149	0.128530
576.8626	0.148654
579.8121	0.171878
582.7635	0.211156
585.7167	0.195378
588.6718	0.165170
591.6288	0.107520
594.5875	0.141207
597.5481	0.123319
600.5105	0.147261
603.4747	0.154708
606.4407	0.134288
609.4085	0.106444
612.3781	0.105832
615.3495	0.104756
618.3227	0.088408
621.2977	0.057547
624.2745	0.072630
627.2530	0.056408
630.2333	0.048835
633.2154	0.037065
636.1992	0.036474
639.1848	0.032740
642.1721	0.024885
645.1612	0.023043
648.1520	0.024007
651.1445	0.022370
654.1388	0.026536
657.1348	0.711485
660.1325	0.038085
663.1319	0.017104
666.1330	0.017524
669.1359	0.015654
672.1404	0.027129
675.1466	0.021961
678.1545	0.023670
681.1641	0.027656
684.1754	0.027129
687.1883	0.032382
690.2029	0.030357
693.2192	0.030314
696.2371	0.024028
699.2567	0.030146
702.2779	0.023965
705.3008	0.019198
708.3253	0.031010
711.3514	0.025779
714.3791	0.029386
717.4085	0.023459
720.4395	0.023416
723.4721	0.022130
726.5063	0.026623
729.5421	0.031432
732.5795	0.034027
735.6185	0.040355
738.6591	0.031685
741.7013	0.028015
744.7450	0.025505
747.7903	0.023838
750.8372	0.031580
753.8856	0.035525
756.9356	0.041115
759.9872	0.047591
763.0403	0.040397
766.0949	0.041642
769.1510	0.041811
772.2087	0.034702
775.2679	0.023332
778.3287	0.020569
781.3909	0.028985
784.4547	0.024113
787.5199	0.024999
790.5867	0.020273
793.6550	0.019809
796.7247	0.017721
799.7959	0.017679
802.8686	0.013101
805.9428	0.015316
809.0185	0.018607
812.0956	0.012911
815.1742	0.014536
818.2542	0.010507
821.3357	0.013734
824.4186	0.010401
827.5029	0.011878
830.5887	0.006646
833.6759	0.007828
836.7646	0.008123
839.8546	0.005845
842.9461	0.004157
846.0390	0.004178
849.1333	0.003503
852.2289	0.004896
855.3260	0.011203
858.4245	0.009030
861.5243	0.005085
864.6255	0.005254
867.7281	0.002765
870.8321	0.004643
873.9374	0.003546
877.0441	0.003967
880.1521	0.006562
883.2615	0.005001
886.3722	0.006225
889.4843	0.004727
892.5977	0.002849
895.7124	0.003672
898.8284	0.004347
901.9458	0.002913
905.0644	0.005212
908.1844	0.002090
911.3057	0.002512
914.4283	0.004010
917.5521	0.002111
920.6773	0.003672
923.8037	0.001879
926.9314	0.000846
930.0604	0.003187
933.1906	0.001478
936.3221	0.001204
939.4549	0.001521
942.5889	0.000613
945.7241	0.000550
948.8606	-0.000083
951.9983	0.001457
955.1373	-0.000715
958.2775	0.000234
961.4189	-0.000441
964.5615	0.001457
967.7053	0.000487
970.8504	0.001352
973.9966	0.000171
977.1440	-0.000272
980.2926	0.001204
983.4424	0.000571
986.5934	-0.000294
989.7456	0.001710
992.8989	-0.000167
996.0534	0.000571
999.2090	0.000403
1002.37	-0.000062
1005.52	0.001141
1008.68	0.000445
1011.84	-0.000399
1015	0.001056
1018.17	-0.000104
1021.33	0.000529
1023.03	-0.000125