Folder: Auto_Polymerization/Auto_Polymerization/Spectra/MRG-061-G- spectra_G1_G2_after_aminolysis

Note: README.md
# Auto_Polymerization

[![Python 3.10](https://img.shields.io/badge/python-3.10-blue.svg)](https://www.python.org/downloads/)
[![License: MIT](https://img.shields.io/badge/License-MIT-yellow.svg)](https://opensource.org/licenses/MIT)

This repository contains the **Auto_Polymerization platform** for automated polymer synthesis and characterization.

## ğŸš€ Quick Start

### Device Testing

For testing real devices in your Auto_Polymerization platform, see the demo folder:

```bash
cd Auto_Polymerization/demo
python demo_device_test.py
```

This will guide you through testing individual devices with safe parameters.

For comprehensive device testing:

```bash
cd Auto_Polymerization/demo
python device_test_controller.py
```

ğŸ“– See [`Auto_Polymerization/demo/DEVICE_TESTING_README.md`](Auto_Polymerization/demo/DEVICE_TESTING_README.md) for detailed documentation.

## ğŸ“¦ Required Packages and Setup

### ğŸ”§ Hardware Drivers

Install drivers for the devices used in this project:

- **[Thorlabs CCS200 Spectrometer](https://www.thorlabs.com/thorproduct.cfm?partnumber=CCS200#ad-image-0)** - UV-VIS spectroscopy
- **[Thorlabs upLED Controller](https://www.thorlabs.com/thorproduct.cfm?partnumber=UPLED)** - LED control

### ğŸ Python Environment

**Python Version:** 3.10

Install the linear actuator and valves control package from the local source in editable mode:

```bash
pip install -e src/linear_actuator_and_valves/
```

### ğŸ“š Core Dependencies

```bash
pip install scipy numpy pandas matplotlib pyserial nmrglue requests pyyaml medusa-sdl
```

### ğŸ”¬ MatterLab Packages

Install from [MatterLab devices repository](https://gitlab.com/aspuru-guzik-group/self-driving-lab/devices):

#### Easy Installation (if available):
```bash
pip install matterlab_hotplates
pip install matterlab_pumps
pip install matterlab_serial_device
```

#### Manual Installation:

**Hotplates, Pumps, Serial Device:**

https://gitlab.com/aspuru-guzik-group/self-driving-lab/devices



**Spectrometers:**

- **NMR (Nanalysis Benchtop):**

  git clone https://gitlab.com/aspuru-guzik-group/self-driving-lab/devices/nmr
  cd nmr
  git checkout develop
  pip install -e .


- **UV-VIS (Thorlabs CCS200):**

  git clone https://gitlab.com/aspuru-guzik-group/self-driving-lab/devices/spectrometer
  cd spectrometer
  git checkout develop
  pip install -e .


> **Note:** If access is not public, contact Han Hao at University of Toronto.

### âš™ï¸ Configuration

**CSS200 Spectrometer DLL:**
Potentially you need to update the `DLL_FILE` value in `ccs_spectrometer.py` in the matterlab package:
The correct file path is typically: 
DLL_FILE = Path(r"C:\Program Files\IVI Foundation\VISA\Win64\Bin\TLCCS_64.dll")
#

**Arduino Setup:**
1. Install Arduino IDE on your PC
2. Upload the Arduino code from `users/setup/` to your Arduino board
3. An overview of the hardware connections of the GPIO pins is given in "Arduino_contacts_overview_2025_06_27_bb.jpg"
## âš ï¸ Important Notes



## ğŸ“ Project Struc

File: MRG-061-F-7-reference_polymer_before_aminolysis.txt
# Wavelength (nm)	Intensity (a.u.)
197.7802	0.001431
200.4334	0.000271
203.0892	0.000988
205.7475	-0.000932
208.4084	0.001389
211.0718	0.000102
213.7376	0.001515
216.4060	-0.000404
219.0769	-0.000172
221.7503	0.000925
224.4262	0.001515
227.1046	0.000798
229.7855	-0.000362
232.4688	-0.000510
235.1546	0.001452
237.8429	0.000503
240.5337	0.000904
243.2269	-0.000974
245.9225	0.000756
248.6206	-0.000763
251.3212	0.000482
254.0242	0.001241
256.7296	0.000482
259.4375	0.001009
262.1477	0.000144
264.8604	0.000060
267.5755	0.001199
270.2931	-0.000974
273.0130	-0.000109
275.7353	0.000672
278.4600	0.000650
281.1871	0.000081
283.9166	0.001072
286.6484	0.000439
289.3827	-0.000868
292.1193	-0.000383
294.8582	0.001072
297.5995	0.001199
300.3432	0.000967
303.0892	0.000439
305.8376	0.001347
308.5883	0.000165
311.3413	0.000819
314.0967	-0.001375
316.8543	0.000735
319.6143	0.000334
322.3766	0.001093
325.1412	-0.000088
327.9082	0.000967
330.6774	-0.000278
333.4489	0.001494
336.2227	-0.000088
338.9987	0.000988
341.7771	-0.001164
344.5577	0.000756
347.3406	-0.000025
350.1257	0.000439
352.9131	0.000904
355.7027	0.001452
358.4946	0.000777
361.2888	0.001199
364.0851	-0.000320
366.8837	-0.000151
369.6845	0.000144
372.4876	0.001051
375.2928	0.000714
378.1003	-0.000088
380.9100	0.000882
383.7219	0.000608
386.5359	0.000461
389.3522	0.001072
392.1706	-0.000636
394.9912	0.001558
397.8140	0.002886
400.6390	0.003772
403.4661	0.005460
406.2954	0.005629
409.1269	0.005144
411.9605	0.007464
414.7962	0.011135
417.6341	0.009595
420.4741	0.013033
423.3162	0.013603
426.1605	0.013202
429.0068	0.016514
431.8553	0.014193
434.7059	0.014404
437.5586	0.015839
440.4135	0.015396
443.2703	0.020121
446.1293	0.019256
448.9904	0.019024
451.8535	0.016577
454.7188	0.014657
457.5860	0.014425
460.4554	0.014278
463.3268	0.013075
466.2003	0.011683
469.0758	0.009405
471.9533	0.007717
474.8329	0.007443
477.7145	0.006536
480.5982	0.007105
483.4838	0.004658
486.3715	0.013518
489.2612	0.003540
492.1529	0.002000
495.0466	0.003140
497.9423	0.004131
500.8400	0.001494
503.7397	0.003393
506.6414	0.002190
509.5450	0.002992
512.4506	0.002401
515.3582	0.003308
518.2677	0.002612
521.1792	0.001452
524.0927	0.003287
527.0081	0.003498
529.9254	0.004448
532.8447	0.005418
535.7659	0.007127
538.6890	0.007781
541.6140	0.008709
544.5410	0.011599
547.4699	0.013898
550.4007	0.012738
553.3333	0.017526
556.2679	0.020902
559.2044	0.019657
562.1427	0.026175
565.0829	0.030373
568.0250	0.043494
570.9690	0.086760
573.9149	0.122241
576.8626	0.140931
579.8121	0.161710
582.7635	0.203119
585.7167	0.181877
588.6718	0.156331
591.6288	0.101252
594.5875	0.134160
597.5481	0.121651
600.5105	0.144391
603.4747	0.154242
606.4407	0.129962
609.4085	0.107074
612.3781	0.106188
615.3495	0.103425
618.3227	0.087161
621.2977	0.060265
624.2745	0.070707
627.2530	0.057902
630.2333	0.049274
633.2154	0.035795
636.1992	0.036322
639.1848	0.032504
642.1721	0.025858
645.1612	0.022725
648.1520	0.023212
651.1445	0.023685
654.1388	0.029537
657.1348	0.707511
660.1325	0.040606
663.1319	0.019771
666.1330	0.019785
669.1359	0.017632
672.1404	0.028179
675.1466	0.022441
678.1545	0.022420
681.1641	0.027631
684.1754	0.026871
687.1883	0.035056
690.2029	0.028517
693.2192	0.031343
696.2371	0.025078
699.2567	0.029719
702.2779	0.024804
705.3008	0.020501
708.3253	0.031913
711.3514	0.027926
714.3791	0.029572
717.4085	0.023876
720.4395	0.024614
723.4721	0.022526
726.5063	0.028158
729.5421	0.030985
732.5795	0.033348
735.6185	0.039191
738.6591	0.032651
741.7013	0.029403
744.7450	0.023285
747.7903	0.025563
750.8372	0.031976
753.8856	0.034508
756.9356	0.039254
759.9872	0.049337
763.0403	0.038811
766.0949	0.042165
769.1510	0.037820
772.2087	0.034381
775.2679	0.026914
778.3287	0.019615
781.3909	0.027441
784.4547	0.027589
787.5199	0.024488
790.5867	0.021070
793.6550	0.019319
796.7247	0.019087
799.7959	0.018539
802.8686	0.014594
805.9428	0.016640
809.0185	0.019362
812.0956	0.013328
815.1742	0.012295
818.2542	0.012021
821.3357	0.013582
824.4186	0.010122
827.5029	0.012400
830.5887	0.009531
833.6759	0.007485
836.7646	0.004996
839.8546	0.006473
842.9461	0.004490
846.0390	0.005587
849.1333	0.003730
852.2289	0.005460
855.3260	0.009194
858.4245	0.008371
861.5243	0.005312
864.6255	0.006852
867.7281	0.003604
870.8321	0.006831
873.9374	0.004595
877.0441	0.005270
880.1521	0.008287
883.2615	0.005945
886.3722	0.004237
889.4843	0.003815
892.5977	0.004363
895.7124	0.002507
898.8284	0.004258
901.9458	0.003119
905.0644	0.003456
908.1844	0.004469
911.3057	0.004890
914.4283	0.002443
917.5521	0.004068
920.6773	0.002865
923.8037	0.002570
926.9314	0.001220
930.0604	0.002000
933.1906	0.001030
936.3221	0.001916
939.4549	0.002865
942.5889	0.000482
945.7241	0.001262
948.8606	0.001009
951.9983	0.001579
955.1373	0.000566
958.2775	0.001790
961.4189	0.000904
964.5615	0.000861
967.7053	0.000229
970.8504	0.000714
973.9966	0.000672
977.1440	0.001262
980.2926	0.001262
983.4424	0.001937
986.5934	-0.000299
989.7456	0.001790
992.8989	-0.001501
996.0534	0.000566
999.2090	0.000165
1002.37	0.000925
1005.52	0.001009
1008.68	-0.000784
1011.84	0.001051
1015	0.000039
1018.17	0.000018
1021.33	0.001051
1023.03	0.000524