Folder: Auto_Polymerization/Auto_Polymerization/Spectra/old spectra (lamp off or wrong integration time)

Note: README.md
# Auto_Polymerization

[![Python 3.10](https://img.shields.io/badge/python-3.10-blue.svg)](https://www.python.org/downloads/)
[![License: MIT](https://img.shields.io/badge/License-MIT-yellow.svg)](https://opensource.org/licenses/MIT)

This repository contains the **Auto_Polymerization platform** for automated polymer synthesis and characterization.

## ğŸš€ Quick Start

### Device Testing

For testing real devices in your Auto_Polymerization platform, see the demo folder:

```bash
cd Auto_Polymerization/demo
python demo_device_test.py
```

This will guide you through testing individual devices with safe parameters.

For comprehensive device testing:

```bash
cd Auto_Polymerization/demo
python device_test_controller.py
```

ğŸ“– See [`Auto_Polymerization/demo/DEVICE_TESTING_README.md`](Auto_Polymerization/demo/DEVICE_TESTING_README.md) for detailed documentation.

## ğŸ“¦ Required Packages and Setup

### ğŸ”§ Hardware Drivers

Install drivers for the devices used in this project:

- **[Thorlabs CCS200 Spectrometer](https://www.thorlabs.com/thorproduct.cfm?partnumber=CCS200#ad-image-0)** - UV-VIS spectroscopy
- **[Thorlabs upLED Controller](https://www.thorlabs.com/thorproduct.cfm?partnumber=UPLED)** - LED control

### ğŸ Python Environment

**Python Version:** 3.10

Install the linear actuator and valves control package from the local source in editable mode:

```bash
pip install -e src/linear_actuator_and_valves/
```

### ğŸ“š Core Dependencies

```bash
pip install scipy numpy pandas matplotlib pyserial nmrglue requests pyyaml medusa-sdl
```

### ğŸ”¬ MatterLab Packages

Install from [MatterLab devices repository](https://gitlab.com/aspuru-guzik-group/self-driving-lab/devices):

#### Easy Installation (if available):
```bash
pip install matterlab_hotplates
pip install matterlab_pumps
pip install matterlab_serial_device
```

#### Manual Installation:

**Hotplates, Pumps, Serial Device:**

https://gitlab.com/aspuru-guzik-group/self-driving-lab/devices



**Spectrometers:**

- **NMR (Nanalysis Benchtop):**

  git clone https://gitlab.com/aspuru-guzik-group/self-driving-lab/devices/nmr
  cd nmr
  git checkout develop
  pip install -e .


- **UV-VIS (Thorlabs CCS200):**

  git clone https://gitlab.com/aspuru-guzik-group/self-driving-lab/devices/spectrometer
  cd spectrometer
  git checkout develop
  pip install -e .


> **Note:** If access is not public, contact Han Hao at University of Toronto.

### âš™ï¸ Configuration

**CSS200 Spectrometer DLL:**
Potentially you need to update the `DLL_FILE` value in `ccs_spectrometer.py` in the matterlab package:
The correct file path is typically: 
DLL_FILE = Path(r"C:\Program Files\IVI Foundation\VISA\Win64\Bin\TLCCS_64.dll")
#

**Arduino Setup:**
1. Install Arduino IDE on your PC
2. Upload the Arduino code from `users/setup/` to your Arduino board
3. An overview of the hardware connections of the GPIO pins is given in "Arduino_contacts_overview_2025_06_27_bb.jpg"
## âš ï¸ Important Notes



## ğŸ“ Project Struc

File: spectrum_2025-06-19_09-15-05.txt
# Wavelength (nm)	Intensity (a.u.)
197.7802	0.002058
200.4334	-0.001198
203.0892	0.000599
205.7475	0.001487
208.4084	0.000874
211.0718	-0.000649
213.7376	-0.000458
216.4060	-0.002087
219.0769	0.001720
221.7503	-0.000733
224.4262	0.000155
227.1046	-0.000352
229.7855	-0.001114
232.4688	-0.001029
235.1546	-0.001114
237.8429	0.000049
240.5337	0.000345
243.2269	0.001022
245.9225	0.000832
248.6206	0.000472
251.3212	0.001699
254.0242	0.000049
256.7296	0.000070
259.4375	0.001318
262.1477	0.000895
264.8604	0.001572
267.5755	-0.000310
270.2931	-0.001008
273.0130	-0.000183
275.7353	-0.000226
278.4600	0.002376
281.1871	-0.001473
283.9166	-0.000860
286.6484	0.000176
289.3827	0.001170
292.1193	0.000916
294.8582	0.001191
297.5995	0.000959
300.3432	0.001234
303.0892	0.001001
305.8376	0.000303
308.5883	0.000557
311.3413	0.001382
314.0967	-0.000712
316.8543	-0.000458
319.6143	0.000557
322.3766	-0.000437
325.1412	0.000515
327.9082	-0.000331
330.6774	-0.000374
333.4489	-0.000395
336.2227	-0.000775
338.9987	0.001191
341.7771	0.000515
344.5577	-0.000183
347.3406	0.000451
350.1257	-0.000416
352.9131	0.000895
355.7027	-0.000099
358.4946	0.001043
361.2888	0.001107
364.0851	0.000641
366.8837	0.001212
369.6845	0.000240
372.4876	0.000663
375.2928	-0.000775
378.1003	0.000768
380.9100	0.001868
383.7219	0.000599
386.5359	-0.000458
389.3522	0.001762
392.1706	0.000536
394.9912	0.000599
397.8140	0.000219
400.6390	-0.000522
403.4661	-0.000289
406.2954	-0.001685
409.1269	0.000493
411.9605	0.001953
414.7962	0.000197
417.6341	0.000070
420.4741	0.001191
423.3162	-0.001410
426.1605	-0.001558
429.0068	0.000472
431.8553	0.000663
434.7059	-0.000923
437.5586	0.002333
440.4135	0.000261
443.2703	0.001276
446.1293	0.001128
448.9904	-0.000754
451.8535	-0.001304
454.7188	0.000261
457.5860	0.001572
460.4554	-0.001219
463.3268	-0.000141
466.2003	-0.001114
469.0758	-0.000014
471.9533	-0.001346
474.8329	0.000007
477.7145	0.000261
480.5982	0.000768
483.4838	-0.000437
486.3715	0.000493
489.2612	-0.000500
492.1529	0.001487
495.0466	0.000345
497.9423	0.001360
500.8400	0.000938
503.7397	0.000599
506.6414	0.001530
509.5450	0.000028
512.4506	-0.001917
515.3582	0.000515
518.2677	-0.001875
521.1792	0.001022
524.0927	-0.000374
527.0081	0.000049
529.9254	0.001022
532.8447	0.000219
535.7659	-0.000860
538.6890	-0.000120
541.6140	0.000113
544.5410	-0.001621
547.4699	0.001001
550.4007	-0.000120
553.3333	-0.000120
556.2679	-0.000014
559.2044	0.000811
562.1427	-0.000374
565.0829	0.000557
568.0250	-0.000966
570.9690	-0.000416
573.9149	0.000515
576.8626	-0.001304
579.8121	0.000367
582.7635	-0.000754
585.7167	0.001086
588.6718	-0.000331
591.6288	0.001403
594.5875	-0.001494
597.5481	0.000684
600.5105	-0.000183
603.4747	-0.000712
606.4407	-0.000458
609.4085	0.000134
612.3781	-0.000818
615.3495	0.000345
618.3227	-0.000289
621.2977	0.000557
624.2745	-0.000014
627.2530	0.000895
630.2333	0.001191
633.2154	0.000895
636.1992	0.001086
639.1848	0.000726
642.1721	0.000711
645.1612	0.000749
648.1520	0.000513
651.1445	0.000199
654.1388	0.001225
657.1348	0.000641
660.1325	0.000135
663.1319	0.000555
666.1330	0.001017
669.1359	-0.000881
672.1404	0.000641
675.1466	-0.000543
678.1545	0.001487
681.1641	0.000388
684.1754	0.001382
687.1883	-0.000585
690.2029	-0.000945
693.2192	0.000832
696.2371	0.000134
699.2567	0.000557
702.2779	-0.000395
705.3008	0.000261
708.3253	0.001043
711.3514	-0.000522
714.3791	-0.001473
717.4085	0.000493
720.4395	0.000409
723.4721	-0.000543
726.5063	-0.000247
729.5421	0.001043
732.5795	0.000134
735.6185	0.000641
738.6591	0.000493
741.7013	0.001995
744.7450	-0.000839
747.7903	0.002228
750.8372	-0.000860
753.8856	0.000028
756.9356	0.000028
759.9872	-0.000247
763.0403	-0.000268
766.0949	0.000197
769.1510	0.000409
772.2087	-0.000585
775.2679	0.000007
778.3287	-0.000712
781.3909	0.000303
784.4547	-0.001600
787.5199	-0.000141
790.5867	-0.000479
793.6550	-0.000289
796.7247	-0.000078
799.7959	-0.000881
802.8686	0.000557
805.9428	0.000388
809.0185	0.001614
812.0956	0.000515
815.1742	0.000028
818.2542	0.001043
821.3357	0.000028
824.4186	-0.000247
827.5029	0.000345
830.5887	-0.000120
833.6759	0.001424
836.7646	-0.000183
839.8546	0.000768
842.9461	0.000557
846.0390	0.000620
849.1333	-0.000522
852.2289	-0.000881
855.3260	-0.000564
858.4245	0.001783
861.5243	0.000261
864.6255	-0.000183
867.7281	-0.001748
870.8321	-0.001473
873.9374	-0.000183
877.0441	-0.001262
880.1521	0.000916
883.2615	-0.000035
886.3722	0.000726
889.4843	-0.000818
892.5977	0.000684
895.7124	-0.000352
898.8284	0.001509
901.9458	-0.000374
905.0644	0.002333
908.1844	-0.000670
911.3057	-0.000733
914.4283	-0.000712
917.5521	-0.000437
920.6773	0.000049
923.8037	0.000070
926.9314	0.000282
930.0604	0.000240
933.1906	0.001466
936.3221	0.000641
939.4549	-0.000754
942.5889	0.000515
945.7241	0.001995
948.8606	0.002798
951.9983	-0.000585
955.1373	-0.000289
958.2775	0.001593
961.4189	-0.001833
964.5615	0.000853
967.7053	-0.000797
970.8504	0.001509
973.9966	-0.000183
977.1440	-0.000310
980.2926	0.000663
983.4424	0.002291
986.5934	-0.000183
989.7456	0.000070
992.8989	-0.001071
996.0534	-0.000352
999.2090	0.001593
1002.37	0.002312
1005.52	0.000620
1008.68	-0.001664
1011.84	-0.001558
1015	-0.000120
1018.17	-0.000374
1021.33	0.001699
1023.03	-0.002235