Folder: Auto_Polymerization/Auto_Polymerization/Spectra/pure_compounds_spectra_test (part 2)

File: DMSO+MMA_spectrum_2025-06-19_14-47-06.txt
# Wavelength (nm)	Intensity (a.u.)
197.7802	0.000091
200.4334	0.000661
203.0892	0.000197
205.7475	0.000493
208.4084	0.000704
211.0718	-0.000077
213.7376	0.001907
216.4060	-0.001808
219.0769	-0.000077
221.7503	0.000577
224.4262	-0.000457
227.1046	0.000176
229.7855	0.001548
232.4688	0.000556
235.1546	0.000725
237.8429	-0.001470
240.5337	0.001463
243.2269	0.000493
245.9225	0.001590
248.6206	0.000851
251.3212	0.000324
254.0242	-0.000415
256.7296	0.000366
259.4375	0.001759
262.1477	0.000450
264.8604	-0.001175
267.5755	0.001780
270.2931	-0.000267
273.0130	0.001590
275.7353	-0.000099
278.4600	0.000345
281.1871	0.001949
283.9166	0.000978
286.6484	0.000113
289.3827	0.000345
292.1193	0.000324
294.8582	0.000429
297.5995	0.000767
300.3432	-0.000563
303.0892	0.000767
305.8376	-0.000246
308.5883	-0.000753
311.3413	-0.000225
314.0967	-0.001006
316.8543	0.000682
319.6143	0.001991
322.3766	0.001780
325.1412	0.003469
327.9082	0.003553
330.6774	0.002793
333.4489	0.002962
336.2227	0.003363
338.9987	0.006044
341.7771	0.004883
344.5577	0.006424
347.3406	0.007226
350.1257	0.007711
352.9131	0.009168
355.7027	0.009843
358.4946	0.008007
361.2888	0.011004
364.0851	0.010329
366.8837	0.012608
369.6845	0.013347
372.4876	0.013600
375.2928	0.016154
378.1003	0.019764
380.9100	0.019236
383.7219	0.023183
386.5359	0.022698
389.3522	0.024872
392.1706	0.028861
394.9912	0.030465
397.8140	0.032766
400.6390	0.033505
403.4661	0.032112
406.2954	0.035637
409.1269	0.034729
411.9605	0.035447
414.7962	0.035447
417.6341	0.035721
420.4741	0.037980
423.3162	0.043636
426.1605	0.039689
429.0068	0.041948
431.8553	0.043341
434.7059	0.044713
437.5586	0.042729
440.4135	0.044987
443.2703	0.052776
446.1293	0.051320
448.9904	0.052945
451.8535	0.050813
454.7188	0.043299
457.5860	0.050475
460.4554	0.051889
463.3268	0.047942
466.2003	0.057209
469.0758	0.043847
471.9533	0.040133
474.8329	0.046380
477.7145	0.045093
480.5982	0.051066
483.4838	0.053895
486.3715	0.173997
489.2612	0.052924
492.1529	0.052312
495.0466	0.050116
497.9423	0.048111
500.8400	0.049715
503.7397	0.056681
506.6414	0.053219
509.5450	0.048702
512.4506	0.047731
515.3582	0.040470
518.2677	0.039098
521.1792	0.037790
524.0927	0.037853
527.0081	0.038993
529.9254	0.042011
532.8447	0.039647
535.7659	0.045494
538.6890	0.045663
541.6140	0.046655
544.5410	0.052692
547.4699	0.049737
550.4007	0.049378
553.3333	0.052417
556.2679	0.056470
559.2044	0.047795
562.1427	0.058665
565.0829	0.061135
568.0250	0.084733
570.9690	0.152678
573.9149	0.205088
576.8626	0.234111
579.8121	0.249710
582.7635	0.309529
585.7167	0.274152
588.6718	0.226850
591.6288	0.145101
594.5875	0.186661
597.5481	0.162092
600.5105	0.197574
603.4747	0.199030
606.4407	0.172583
609.4085	0.139127
612.3781	0.131761
615.3495	0.133344
618.3227	0.109492
621.2977	0.076839
624.2745	0.088553
627.2530	0.071224
630.2333	0.062359
633.2154	0.044692
636.1992	0.044502
639.1848	0.041061
642.1721	0.030141
645.1612	0.026585
648.1520	0.029363
651.1445	0.025925
654.1388	0.033063
657.1348	0.883513
660.1325	0.054568
663.1319	0.022572
666.1330	0.023041
669.1359	0.020629
672.1404	0.032091
675.1466	0.026244
678.1545	0.028376
681.1641	0.034138
684.1754	0.033505
687.1883	0.044333
690.2029	0.034708
693.2192	0.039753
696.2371	0.029916
699.2567	0.035404
702.2779	0.027236
705.3008	0.023732
708.3253	0.039689
711.3514	0.032724
714.3791	0.035953
717.4085	0.030212
720.4395	0.027426
723.4721	0.027953
726.5063	0.034813
729.5421	0.036608
732.5795	0.044354
735.6185	0.048301
738.6591	0.042349
741.7013	0.035995
744.7450	0.030613
747.7903	0.032302
750.8372	0.040534
753.8856	0.040323
756.9356	0.050306
759.9872	0.060945
763.0403	0.048090
766.0949	0.049631
769.1510	0.048217
772.2087	0.042560
775.2679	0.031077
778.3287	0.024597
781.3909	0.034729
784.4547	0.030486
787.5199	0.028481
790.5867	0.027109
793.6550	0.021917
796.7247	0.020967
799.7959	0.020460
802.8686	0.016513
805.9428	0.019658
809.0185	0.020165
812.0956	0.014825
815.1742	0.016429
818.2542	0.014571
821.3357	0.015268
824.4186	0.010455
827.5029	0.013136
830.5887	0.009780
833.6759	0.010624
836.7646	0.007859
839.8546	0.008281
842.9461	0.005263
846.0390	0.005326
849.1333	0.004313
852.2289	0.006550
855.3260	0.013875
858.4245	0.009906
861.5243	0.005601
864.6255	0.007247
867.7281	0.005685
870.8321	0.006930
873.9374	0.004925
877.0441	0.005326
880.1521	0.008091
883.2615	0.006614
886.3722	0.006086
889.4843	0.004397
892.5977	0.003595
895.7124	0.004313
898.8284	0.005980
901.9458	0.004841
905.0644	0.004419
908.1844	0.003384
911.3057	0.003743
914.4283	0.002392
917.5521	0.003996
920.6773	0.003785
923.8037	0.002793
926.9314	0.002772
930.0604	0.001231
933.1906	0.001843
936.3221	0.002857
939.4549	0.001168
942.5889	0.000493
945.7241	0.001485
948.8606	-0.000626
951.9983	0.001379
955.1373	0.000408
958.2775	0.000725
961.4189	0.000239
964.5615	0.001590
967.7053	-0.000162
970.8504	0.000661
973.9966	0.000999
977.1440	0.000049
980.2926	0.001632
983.4424	-0.000521
986.5934	-0.000373
989.7456	-0.000246
992.8989	-0.000690
996.0534	0.001759
999.2090	0.000007
1002.37	-0.001238
1005.52	0.001442
1008.68	0.000767
1011.84	0.000788
1015	0.001062
1018.17	-0.001133
1021.33	-0.001302
1023.03	0.000007