Folder: Auto_Polymerization/Auto_Polymerization/Spectra/pure_compounds_spectra_test

Note: README.md
# Auto_Polymerization

[![Python 3.10](https://img.shields.io/badge/python-3.10-blue.svg)](https://www.python.org/downloads/)
[![License: MIT](https://img.shields.io/badge/License-MIT-yellow.svg)](https://opensource.org/licenses/MIT)

This repository contains the **Auto_Polymerization platform** for automated polymer synthesis and characterization.

## ğŸš€ Quick Start

### Device Testing

For testing real devices in your Auto_Polymerization platform, see the demo folder:

```bash
cd Auto_Polymerization/demo
python demo_device_test.py
```

This will guide you through testing individual devices with safe parameters.

For comprehensive device testing:

```bash
cd Auto_Polymerization/demo
python device_test_controller.py
```

ğŸ“– See [`Auto_Polymerization/demo/DEVICE_TESTING_README.md`](Auto_Polymerization/demo/DEVICE_TESTING_README.md) for detailed documentation.

## ğŸ“¦ Required Packages and Setup

### ğŸ”§ Hardware Drivers

Install drivers for the devices used in this project:

- **[Thorlabs CCS200 Spectrometer](https://www.thorlabs.com/thorproduct.cfm?partnumber=CCS200#ad-image-0)** - UV-VIS spectroscopy
- **[Thorlabs upLED Controller](https://www.thorlabs.com/thorproduct.cfm?partnumber=UPLED)** - LED control

### ğŸ Python Environment

**Python Version:** 3.10

Install the linear actuator and valves control package from the local source in editable mode:

```bash
pip install -e src/linear_actuator_and_valves/
```

### ğŸ“š Core Dependencies

```bash
pip install scipy numpy pandas matplotlib pyserial nmrglue requests pyyaml medusa-sdl
```

### ğŸ”¬ MatterLab Packages

Install from [MatterLab devices repository](https://gitlab.com/aspuru-guzik-group/self-driving-lab/devices):

#### Easy Installation (if available):
```bash
pip install matterlab_hotplates
pip install matterlab_pumps
pip install matterlab_serial_device
```

#### Manual Installation:

**Hotplates, Pumps, Serial Device:**

https://gitlab.com/aspuru-guzik-group/self-driving-lab/devices



**Spectrometers:**

- **NMR (Nanalysis Benchtop):**

  git clone https://gitlab.com/aspuru-guzik-group/self-driving-lab/devices/nmr
  cd nmr
  git checkout develop
  pip install -e .


- **UV-VIS (Thorlabs CCS200):**

  git clone https://gitlab.com/aspuru-guzik-group/self-driving-lab/devices/spectrometer
  cd spectrometer
  git checkout develop
  pip install -e .


> **Note:** If access is not public, contact Han Hao at University of Toronto.

### âš™ï¸ Configuration

**CSS200 Spectrometer DLL:**
Potentially you need to update the `DLL_FILE` value in `ccs_spectrometer.py` in the matterlab package:
The correct file path is typically: 
DLL_FILE = Path(r"C:\Program Files\IVI Foundation\VISA\Win64\Bin\TLCCS_64.dll")
#

**Arduino Setup:**
1. Install Arduino IDE on your PC
2. Upload the Arduino code from `users/setup/` to your Arduino board
3. An overview of the hardware connections of the GPIO pins is given in "Arduino_contacts_overview_2025_06_27_bb.jpg"
## âš ï¸ Important Notes



## ğŸ“ Project Struc

File: DMSO+AIBN_spectrum_2025-06-19_14-43-10.txt
# Wavelength (nm)	Intensity (a.u.)
197.7802	0.000582
200.4334	-0.000368
203.0892	-0.000558
205.7475	-0.000853
208.4084	0.001068
211.0718	0.000456
213.7376	-0.000030
216.4060	-0.000135
219.0769	-0.000515
221.7503	0.001173
224.4262	0.000076
227.1046	0.000202
229.7855	0.000202
232.4688	-0.000241
235.1546	0.001553
237.8429	0.000266
240.5337	0.000076
243.2269	-0.000093
245.9225	0.000033
248.6206	0.000308
251.3212	-0.000642
254.0242	0.000941
256.7296	0.000350
259.4375	0.000139
262.1477	0.001912
264.8604	-0.000684
267.5755	0.000899
270.2931	-0.000705
273.0130	0.001954
275.7353	-0.000747
278.4600	0.000730
281.1871	-0.000663
283.9166	0.000498
286.6484	0.000350
289.3827	0.001637
292.1193	-0.000262
294.8582	0.000519
297.5995	-0.000199
300.3432	0.000941
303.0892	0.000899
305.8376	0.001236
308.5883	0.000139
311.3413	0.001004
314.0967	-0.000051
316.8543	0.000899
319.6143	-0.000030
322.3766	0.001490
325.1412	0.001384
327.9082	0.002460
330.6774	0.000456
333.4489	0.002059
336.2227	0.002081
338.9987	0.002081
341.7771	0.002270
344.5577	0.001996
347.3406	0.001490
350.1257	0.003980
352.9131	0.003917
355.7027	0.004972
358.4946	0.004191
361.2888	0.007146
364.0851	0.006133
366.8837	0.007462
369.6845	0.007948
372.4876	0.010332
375.2928	0.013604
378.1003	0.014321
380.9100	0.014828
383.7219	0.016621
386.5359	0.019217
389.3522	0.023501
392.1706	0.025401
394.9912	0.029959
397.8140	0.031563
400.6390	0.031352
403.4661	0.034307
406.2954	0.036122
409.1269	0.034476
411.9605	0.035447
414.7962	0.036671
417.6341	0.034539
420.4741	0.039667
423.3162	0.042538
426.1605	0.039604
429.0068	0.039414
431.8553	0.039098
434.7059	0.045492
437.5586	0.044205
440.4135	0.043909
443.2703	0.054124
446.1293	0.053533
448.9904	0.052309
451.8535	0.050114
454.7188	0.044521
457.5860	0.046611
460.4554	0.052541
463.3268	0.049270
466.2003	0.055854
469.0758	0.042559
471.9533	0.040913
474.8329	0.045556
477.7145	0.047645
480.5982	0.051528
483.4838	0.050346
486.3715	0.163508
489.2612	0.052625
492.1529	0.050431
495.0466	0.051169
497.9423	0.050346
500.8400	0.049966
503.7397	0.056065
506.6414	0.054905
509.5450	0.047940
512.4506	0.044901
515.3582	0.043044
518.2677	0.038528
521.1792	0.039773
524.0927	0.039752
527.0081	0.036734
529.9254	0.041145
532.8447	0.040554
535.7659	0.045133
538.6890	0.047012
541.6140	0.049819
544.5410	0.050198
547.4699	0.050621
550.4007	0.047856
553.3333	0.053385
556.2679	0.055453
559.2044	0.047096
562.1427	0.058176
565.0829	0.061954
568.0250	0.080504
570.9690	0.154897
573.9149	0.199448
576.8626	0.230029
579.8121	0.244992
582.7635	0.302353
585.7167	0.267510
588.6718	0.224119
591.6288	0.142361
594.5875	0.188200
597.5481	0.160026
600.5105	0.194067
603.4747	0.197169
606.4407	0.171506
609.4085	0.138035
612.3781	0.131387
615.3495	0.132189
618.3227	0.111063
621.2977	0.075207
624.2745	0.087089
627.2530	0.071619
630.2333	0.061236
633.2154	0.045133
636.1992	0.043698
639.1848	0.041166
642.1721	0.031482
645.1612	0.028358
648.1520	0.029606
651.1445	0.029525
654.1388	0.033617
657.1348	0.869793
660.1325	0.056242
663.1319	0.022342
666.1330	0.023925
669.1359	0.022594
672.1404	0.032218
675.1466	0.027047
678.1545	0.029094
681.1641	0.033737
684.1754	0.033674
687.1883	0.042917
690.2029	0.035468
693.2192	0.039604
696.2371	0.028524
699.2567	0.035700
702.2779	0.030782
705.3008	0.023818
708.3253	0.037135
711.3514	0.032407
714.3791	0.034666
717.4085	0.027321
720.4395	0.028081
723.4721	0.028123
726.5063	0.032661
729.5421	0.035911
732.5795	0.041736
735.6185	0.047370
738.6591	0.040005
741.7013	0.032597
744.7450	0.029368
747.7903	0.030698
750.8372	0.039878
753.8856	0.040448
756.9356	0.051676
759.9872	0.059928
763.0403	0.048911
766.0949	0.050030
769.1510	0.047539
772.2087	0.042031
775.2679	0.029390
778.3287	0.026245
781.3909	0.034581
784.4547	0.030318
787.5199	0.028967
790.5867	0.026393
793.6550	0.023396
796.7247	0.021876
799.7959	0.020272
802.8686	0.017086
805.9428	0.018479
809.0185	0.021834
812.0956	0.016790
815.1742	0.015545
818.2542	0.015229
821.3357	0.014680
824.4186	0.011155
827.5029	0.014258
830.5887	0.009889
833.6759	0.008581
836.7646	0.007399
839.8546	0.007167
842.9461	0.005035
846.0390	0.005774
849.1333	0.004550
852.2289	0.004529
855.3260	0.012569
858.4245	0.009256
861.5243	0.006512
864.6255	0.005141
867.7281	0.005035
870.8321	0.007420
873.9374	0.004719
877.0441	0.004107
880.1521	0.008665
883.2615	0.005922
886.3722	0.006154
889.4843	0.005077
892.5977	0.006512
895.7124	0.003980
898.8284	0.004402
901.9458	0.005035
905.0644	0.005710
908.1844	0.003790
911.3057	0.002840
914.4283	0.002144
917.5521	0.003115
920.6773	0.003938
923.8037	0.004043
926.9314	0.002207
930.0604	0.001658
933.1906	0.000899
936.3221	0.002608
939.4549	0.001405
942.5889	0.001384
945.7241	0.001363
948.8606	0.001827
951.9983	0.001363
955.1373	0.000645
958.2775	-0.000093
961.4189	-0.000452
964.5615	0.000772
967.7053	0.000688
970.8504	0.000329
973.9966	0.000371
977.1440	0.000835
980.2926	-0.000072
983.4424	0.000878
986.5934	-0.000452
989.7456	0.000793
992.8989	0.000308
996.0534	0.000287
999.2090	-0.000304
1002.37	0.000814
1005.52	0.000730
1008.68	-0.001191
1011.84	-0.000410
1015	-0.001634
1018.17	0.001194
1021.33	0.000434
1023.03	0.000730

File: DMSO+Anisole_spectrum_2025-06-19_14-50-15.txt
# Wavelength (nm)	Intensity (a.u.)
197.7802	0.000021
200.4334	0.000105
203.0892	0.000886
205.7475	0.000316
208.4084	0.000127
211.0718	-0.000443
213.7376	0.001287
216.4060	0.000485
219.0769	0.001097
221.7503	0.001013
224.4262	0.000949
227.1046	0.000738
229.7855	0.000127
232.4688	-0.000232
235.1546	-0.001076
237.8429	0.000675
240.5337	0.000717
243.2269	-0.000464
245.9225	0.001034
248.6206	0.000548
251.3212	0.000443
254.0242	0.001055
256.7296	0.002152
259.4375	0.002215
262.1477	0.002194
264.8604	0.000823
267.5755	0.001350
270.2931	0.000380
273.0130	0.001772
275.7353	0.002025
278.4600	0.001561
281.1871	0.000063
283.9166	0.001266
286.6484	0.000928
289.3827	0.000802
292.1193	0.001034
294.8582	0.001455
297.5995	0.002405
300.3432	0.001561
303.0892	0.001202
305.8376	0.000759
308.5883	0.001434
311.3413	0.001730
314.0967	0.001835
316.8543	0.001413
319.6143	0.003080
322.3766	0.002953
325.1412	0.002320
327.9082	0.003354
330.6774	0.003945
333.4489	0.004598
336.2227	0.005316
338.9987	0.005716
341.7771	0.005442
344.5577	0.007720
347.3406	0.008353
350.1257	0.008691
352.9131	0.008649
355.7027	0.010294
358.4946	0.009471
361.2888	0.011201
364.0851	0.009619
366.8837	0.010526
369.6845	0.013057
372.4876	0.011623
375.2928	0.017761
378.1003	0.018120
380.9100	0.020060
383.7219	0.022528
386.5359	0.023562
389.3522	0.024954
392.1706	0.026367
394.9912	0.029637
397.8140	0.031789
400.6390	0.032949
403.4661	0.033371
406.2954	0.033392
409.1269	0.034130
411.9605	0.034657
414.7962	0.036155
417.6341	0.033286
420.4741	0.037041
423.3162	0.041576
426.1605	0.035691
429.0068	0.038496
431.8553	0.038750
434.7059	0.038475
437.5586	0.042947
440.4135	0.042103
443.2703	0.051997
446.1293	0.051701
448.9904	0.050330
451.8535	0.047124
454.7188	0.041513
457.5860	0.046892
460.4554	0.048832
463.3268	0.047482
466.2003	0.053621
469.0758	0.044361
471.9533	0.041323
474.8329	0.044761
477.7145	0.042757
480.5982	0.050942
483.4838	0.050857
486.3715	0.158015
489.2612	0.052271
492.1529	0.048010
495.0466	0.050478
497.9423	0.047229
500.8400	0.049613
503.7397	0.055097
506.6414	0.051343
509.5450	0.045415
512.4506	0.043939
515.3582	0.040374
518.2677	0.037041
521.1792	0.038264
524.0927	0.036408
527.0081	0.038792
529.9254	0.038243
532.8447	0.037610
535.7659	0.044593
538.6890	0.043791
541.6140	0.044023
544.5410	0.049993
547.4699	0.047208
550.4007	0.045268
553.3333	0.052334
556.2679	0.053030
559.2044	0.046280
562.1427	0.055625
565.0829	0.061046
568.0250	0.078132
570.9690	0.145970
573.9149	0.193748
576.8626	0.213513
579.8121	0.235598
582.7635	0.292636
585.7167	0.259118
588.6718	0.208661
591.6288	0.142321
594.5875	0.172949
597.5481	0.159027
600.5105	0.184509
603.4747	0.188580
606.4407	0.162908
609.4085	0.134157
612.3781	0.127935
615.3495	0.124454
618.3227	0.106988
621.2977	0.074989
624.2745	0.086485
627.2530	0.069483
630.2333	0.056743
633.2154	0.045479
636.1992	0.043601
639.1848	0.042673
642.1721	0.031539
645.1612	0.027613
648.1520	0.028525
651.1445	0.027008
654.1388	0.031393
657.1348	0.824549
660.1325	0.054059
663.1319	0.021625
666.1330	0.023922
669.1359	0.020313
672.1404	0.032379
675.1466	0.026536
678.1545	0.028730
681.1641	0.033919
684.1754	0.032358
687.1883	0.044129
690.2029	0.032717
693.2192	0.037674
696.2371	0.030523
699.2567	0.033666
702.2779	0.029764
705.3008	0.023857
708.3253	0.036725
711.3514	0.031219
714.3791	0.032696
717.4085	0.027949
720.4395	0.028477
723.4721	0.028878
726.5063	0.031704
729.5421	0.034805
732.5795	0.040374
735.6185	0.047672
738.6591	0.039235
741.7013	0.033982
744.7450	0.030185
747.7903	0.029890
750.8372	0.037421
753.8856	0.040268
756.9356	0.047820
759.9872	0.058620
763.0403	0.047947
766.0949	0.048284
769.1510	0.047293
772.2087	0.041028
775.2679	0.028392
778.3287	0.024511
781.3909	0.032822
784.4547	0.031219
787.5199	0.028899
790.5867	0.024216
793.6550	0.022613
796.7247	0.023077
799.7959	0.021284
802.8686	0.017993
805.9428	0.018415
809.0185	0.021495
812.0956	0.018077
815.1742	0.015399
818.2542	0.015462
821.3357	0.015525
824.4186	0.009745
827.5029	0.012656
830.5887	0.010294
833.6759	0.010315
836.7646	0.008796
839.8546	0.007910
842.9461	0.005927
846.0390	0.006497
849.1333	0.004535
852.2289	0.006455
855.3260	0.012298
858.4245	0.011180
861.5243	0.005611
864.6255	0.006391
867.7281	0.005231
870.8321	0.006328
873.9374	0.005189
877.0441	0.004366
880.1521	0.008817
883.2615	0.006349
886.3722	0.006813
889.4843	0.006033
892.5977	0.004894
895.7124	0.004894
898.8284	0.006497
901.9458	0.004345
905.0644	0.005105
908.1844	0.004809
911.3057	0.004767
914.4283	0.003544
917.5521	0.002784
920.6773	0.004092
923.8037	0.003923
926.9314	0.002426
930.0604	0.002848
933.1906	0.002067
936.3221	0.002025
939.4549	0.000886
942.5889	0.001055
945.7241	0.000928
948.8606	0.001477
951.9983	0.000105
955.1373	0.000991
958.2775	0.001793
961.4189	0.001223
964.5615	-0.000316
967.7053	0.000316
970.8504	0.001730
973.9966	-0.000127
977.1440	0.001477
980.2926	0.000359
983.4424	0.001160
986.5934	0.000759
989.7456	-0.000253
992.8989	-0.000042
996.0534	0.000949
999.2090	0.000570
1002.37	-0.000548
1005.52	0.001624
1008.68	0.000295
1011.84	0.001245
1015	0.000232
1018.17	0.001666
1021.33	0.000338
1023.03	-0.001181

File: DMSO+CTA_spectrum_2025-06-19_14-56-20.txt
# Wavelength (nm)	Intensity (a.u.)
197.7802	0.001242
200.4334	-0.000046
203.0892	0.001389
205.7475	0.001178
208.4084	0.000419
211.0718	-0.000046
213.7376	0.000334
216.4060	0.001558
219.0769	0.001073
221.7503	0.000482
224.4262	0.000883
227.1046	0.001727
229.7855	-0.001016
232.4688	0.001685
235.1546	0.000397
237.8429	-0.000341
240.5337	0.000672
243.2269	0.000714
245.9225	0.001495
248.6206	0.000376
251.3212	0.002001
254.0242	0.000714
256.7296	-0.000067
259.4375	0.000060
262.1477	0.001009
264.8604	0.000165
267.5755	0.000988
270.2931	-0.000362
273.0130	0.000081
275.7353	-0.000573
278.4600	0.000651
281.1871	0.000988
283.9166	0.000988
286.6484	0.000229
289.3827	-0.000088
292.1193	-0.000700
294.8582	0.001347
297.5995	-0.001185
300.3432	0.000123
303.0892	0.000545
305.8376	0.000123
308.5883	0.000630
311.3413	0.000229
314.0967	0.000419
316.8543	-0.000890
319.6143	0.000735
322.3766	0.001431
325.1412	0.000123
327.9082	-0.000784
330.6774	0.000608
333.4489	-0.000447
336.2227	0.000186
338.9987	0.000461
341.7771	-0.000890
344.5577	-0.000341
347.3406	0.000081
350.1257	0.001368
352.9131	0.000355
355.7027	0.000714
358.4946	0.000735
361.2888	0.000503
364.0851	0.000503
366.8837	0.000208
369.6845	0.000587
372.4876	0.001389
375.2928	-0.000594
378.1003	0.003331
380.9100	0.005800
383.7219	0.008269
386.5359	0.012764
389.3522	0.016182
392.1706	0.020867
394.9912	0.025025
397.8140	0.026249
400.6390	0.028950
403.4661	0.029984
406.2954	0.033571
409.1269	0.032917
411.9605	0.031925
414.7962	0.032495
417.6341	0.033255
420.4741	0.036251
423.3162	0.039986
426.1605	0.035133
429.0068	0.036568
431.8553	0.035597
434.7059	0.035048
437.5586	0.036652
440.4135	0.036547
443.2703	0.043764
446.1293	0.045473
448.9904	0.041210
451.8535	0.037834
454.7188	0.034310
457.5860	0.034943
460.4554	0.036441
463.3268	0.032284
466.2003	0.034922
469.0758	0.026860
471.9533	0.023505
474.8329	0.025848
477.7145	0.024202
480.5982	0.026903
483.4838	0.024476
486.3715	0.072000
489.2612	0.022492
492.1529	0.019116
495.0466	0.017934
497.9423	0.017174
500.8400	0.017195
503.7397	0.018335
506.6414	0.015676
509.5450	0.012384
512.4506	0.012299
515.3582	0.011561
518.2677	0.013334
521.1792	0.012046
524.0927	0.009852
527.0081	0.012384
529.9254	0.013903
532.8447	0.013946
535.7659	0.018018
538.6890	0.018250
541.6140	0.019074
544.5410	0.025362
547.4699	0.025257
550.4007	0.026164
553.3333	0.031777
556.2679	0.033951
559.2044	0.030448
562.1427	0.040704
565.0829	0.045304
568.0250	0.064592
570.9690	0.122457
573.9149	0.163966
576.8626	0.191632
579.8121	0.211574
582.7635	0.265323
585.7167	0.240907
588.6718	0.201403
591.6288	0.129695
594.5875	0.173294
597.5481	0.146873
600.5105	0.174729
603.4747	0.180891
606.4407	0.161666
609.4085	0.132502
612.3781	0.125707
615.3495	0.122309
618.3227	0.104118
621.2977	0.070733
624.2745	0.080652
627.2530	0.066450
630.2333	0.057038
633.2154	0.044144
636.1992	0.042392
639.1848	0.040198
642.1721	0.031379
645.1612	0.026097
648.1520	0.028533
651.1445	0.027314
654.1388	0.030486
657.1348	0.822301
660.1325	0.048623
663.1319	0.020957
666.1330	0.021997
669.1359	0.020445
672.1404	0.030954
675.1466	0.024180
678.1545	0.026713
681.1641	0.033086
684.1754	0.030490
687.1883	0.042688
690.2029	0.031630
693.2192	0.038826
696.2371	0.028190
699.2567	0.035935
702.2779	0.027472
705.3008	0.022323
708.3253	0.035154
711.3514	0.030068
714.3791	0.032453
717.4085	0.026628
720.4395	0.028063
723.4721	0.025341
726.5063	0.031355
729.5421	0.035048
732.5795	0.038045
735.6185	0.045178
738.6591	0.039586
741.7013	0.033487
744.7450	0.027578
747.7903	0.029456
750.8372	0.035977
753.8856	0.040324
756.9356	0.046592
759.9872	0.057903
763.0403	0.044714
766.0949	0.046360
769.1510	0.046127
772.2087	0.040873
775.2679	0.029773
778.3287	0.025974
781.3909	0.031883
784.4547	0.029583
787.5199	0.029878
790.5867	0.024518
793.6550	0.021901
796.7247	0.020466
799.7959	0.018039
802.8686	0.015338
805.9428	0.018673
809.0185	0.021057
812.0956	0.015275
815.1742	0.016119
818.2542	0.013439
821.3357	0.016035
824.4186	0.010337
827.5029	0.011181
830.5887	0.008649
833.6759	0.008100
836.7646	0.008606
839.8546	0.008037
842.9461	0.003795
846.0390	0.004555
849.1333	0.003394
852.2289	0.005209
855.3260	0.012342
858.4245	0.010611
861.5243	0.006159
864.6255	0.006306
867.7281	0.004702
870.8321	0.006222
873.9374	0.004323
877.0441	0.003331
880.1521	0.008585
883.2615	0.005779
886.3722	0.005842
889.4843	0.004217
892.5977	0.004217
895.7124	0.003267
898.8284	0.003183
901.9458	0.005483
905.0644	0.005314
908.1844	0.003415
911.3057	0.002866
914.4283	0.002698
917.5521	0.002972
920.6773	0.002888
923.8037	0.003858
926.9314	0.002550
930.0604	0.002951
933.1906	0.001643
936.3221	0.001896
939.4549	0.001453
942.5889	0.001326
945.7241	0.000545
948.8606	0.000208
951.9983	0.001073
955.1373	0.002001
958.2775	0.002043
961.4189	0.001284
964.5615	0.001537
967.7053	0.000397
970.8504	0.001136
973.9966	0.001474
977.1440	0.001410
980.2926	0.000123
983.4424	0.001516
986.5934	0.000250
989.7456	-0.000404
992.8989	0.000608
996.0534	0.000714
999.2090	-0.001333
1002.37	-0.000215
1005.52	0.000714
1008.68	-0.001227
1011.84	0.001579
1015	0.000144
1018.17	0.001073
1021.33	0.000123
1023.03	0.001136

File: DMSO+MMA_spectrum_2025-06-19_14-46-42.txt
# Wavelength (nm)	Intensity (a.u.)
197.7802	0.001937
200.4334	-0.000489
203.0892	0.001072
205.7475	0.000018
208.4084	-0.000383
211.0718	0.001684
213.7376	0.000503
216.4060	-0.000067
219.0769	0.000102
221.7503	0.001368
224.4262	0.000039
227.1046	-0.000004
229.7855	0.000018
232.4688	0.000292
235.1546	0.001515
237.8429	-0.000236
240.5337	0.002064
243.2269	0.001283
245.9225	0.000440
248.6206	0.000756
251.3212	0.000946
254.0242	0.000904
256.7296	0.002380
259.4375	0.000714
262.1477	0.000714
264.8604	0.000714
267.5755	0.001600
270.2931	0.000186
273.0130	0.000060
275.7353	-0.000320
278.4600	0.002338
281.1871	-0.000236
283.9166	0.001262
286.6484	-0.000362
289.3827	0.000819
292.1193	0.000418
294.8582	0.001410
297.5995	0.001093
300.3432	0.001642
303.0892	0.000967
305.8376	0.001558
308.5883	0.000798
311.3413	0.001558
314.0967	0.001558
316.8543	0.001157
319.6143	0.002444
322.3766	0.001958
325.1412	0.003077
327.9082	0.002971
330.6774	0.002971
333.4489	0.004849
336.2227	0.004743
338.9987	0.005186
341.7771	0.005629
344.5577	0.008351
347.3406	0.006916
350.1257	0.007338
352.9131	0.008941
355.7027	0.010481
358.4946	0.010355
361.2888	0.010650
364.0851	0.010481
366.8837	0.010967
369.6845	0.013709
372.4876	0.014363
375.2928	0.016768
378.1003	0.017992
380.9100	0.022000
383.7219	0.021641
386.5359	0.024320
389.3522	0.025586
392.1706	0.028730
394.9912	0.030945
397.8140	0.034236
400.6390	0.035122
403.4661	0.035016
406.2954	0.036177
409.1269	0.035586
411.9605	0.034869
414.7962	0.039088
417.6341	0.036535
420.4741	0.043370
423.3162	0.044636
426.1605	0.039299
429.0068	0.039425
431.8553	0.040691
434.7059	0.042400
437.5586	0.043476
440.4135	0.044847
443.2703	0.054615
446.1293	0.053560
448.9904	0.052906
451.8535	0.051113
454.7188	0.049298
457.5860	0.049995
460.4554	0.050649
463.3268	0.049362
466.2003	0.058623
469.0758	0.046598
471.9533	0.044573
474.8329	0.047737
477.7145	0.049720
480.5982	0.053750
483.4838	0.050691
486.3715	0.169463
489.2612	0.052843
492.1529	0.054277
495.0466	0.054129
497.9423	0.051155
500.8400	0.050501
503.7397	0.056809
506.6414	0.056176
509.5450	0.050163
512.4506	0.046239
515.3582	0.041493
518.2677	0.040965
521.1792	0.038919
524.0927	0.041451
527.0081	0.038286
529.9254	0.039742
532.8447	0.039805
535.7659	0.047632
538.6890	0.044256
541.6140	0.046514
544.5410	0.050121
547.4699	0.050838
550.4007	0.051408
553.3333	0.052167
556.2679	0.055606
559.2044	0.047526
562.1427	0.059720
565.0829	0.063686
568.0250	0.083263
570.9690	0.156974
573.9149	0.207372
576.8626	0.234059
579.8121	0.248974
582.7635	0.308170
585.7167	0.275260
588.6718	0.225726
591.6288	0.144801
594.5875	0.187711
597.5481	0.168935
600.5105	0.200326
603.4747	0.200896
606.4407	0.174969
609.4085	0.141172
612.3781	0.133388
615.3495	0.132924
618.3227	0.108769
621.2977	0.078411
624.2745	0.088854
627.2530	0.075732
630.2333	0.064066
633.2154	0.047379
636.1992	0.043982
639.1848	0.042716
642.1721	0.032603
645.1612	0.030191
648.1520	0.031816
651.1445	0.031584
654.1388	0.035549
657.1348	0.890263
660.1325	0.056437
663.1319	0.020971
666.1330	0.025138
669.1359	0.021747
672.1404	0.034826
675.1466	0.026725
678.1545	0.030101
681.1641	0.034679
684.1754	0.035143
687.1883	0.042548
690.2029	0.035670
693.2192	0.039446
696.2371	0.029299
699.2567	0.036704
702.2779	0.030839
705.3008	0.023983
708.3253	0.039847
711.3514	0.032189
714.3791	0.035966
717.4085	0.027675
720.4395	0.027485
723.4721	0.030333
726.5063	0.037506
729.5421	0.038371
732.5795	0.042548
735.6185	0.048644
738.6591	0.039700
741.7013	0.036071
744.7450	0.032210
747.7903	0.031367
750.8372	0.040754
753.8856	0.044130
756.9356	0.053307
759.9872	0.062462
763.0403	0.050079
766.0949	0.050881
769.1510	0.048455
772.2087	0.042463
775.2679	0.032611
778.3287	0.027084
781.3909	0.036535
784.4547	0.030544
787.5199	0.029257
790.5867	0.025607
793.6550	0.025755
796.7247	0.020840
799.7959	0.021430
802.8686	0.017527
805.9428	0.019764
809.0185	0.025354
812.0956	0.017802
815.1742	0.018667
818.2542	0.014173
821.3357	0.016747
824.4186	0.012886
827.5029	0.014426
830.5887	0.011431
833.6759	0.010587
836.7646	0.008456
839.8546	0.009363
842.9461	0.004954
846.0390	0.007127
849.1333	0.005903
852.2289	0.007465
855.3260	0.015291
858.4245	0.010840
861.5243	0.006431
864.6255	0.007275
867.7281	0.006072
870.8321	0.005714
873.9374	0.005482
877.0441	0.003688
880.1521	0.008266
883.2615	0.007443
886.3722	0.007127
889.4843	0.004849
892.5977	0.005946
895.7124	0.005376
898.8284	0.003773
901.9458	0.003815
905.0644	0.005017
908.1844	0.005102
911.3057	0.003161
914.4283	0.002823
917.5521	0.005249
920.6773	0.003182
923.8037	0.003456
926.9314	0.003224
930.0604	0.002929
933.1906	0.001283
936.3221	0.002338
939.4549	0.001874
942.5889	0.001283
945.7241	0.000946
948.8606	0.001747
951.9983	0.000925
955.1373	0.000904
958.2775	0.000883
961.4189	0.001832
964.5615	0.002380
967.7053	-0.000257
970.8504	0.001157
973.9966	0.001747
977.1440	0.001874
980.2926	0.000482
983.4424	0.001030
986.5934	0.000545
989.7456	0.000461
992.8989	-0.000004
996.0534	-0.000257
999.2090	0.000292
1002.37	0.001220
1005.52	0.001684
1008.68	0.000123
1011.84	0.001368
1015	-0.000404
1018.17	0.000693
1021.33	0.001051
1023.03	0.001072