Folder: Auto_Polymerization/Auto_Polymerization/Spectra/spectra_while_stopped (part 2)

File: spectrum_2025-06-19_12-55-34.txt
# Wavelength (nm)	Intensity (a.u.)
197.7802	0.000816
200.4334	0.000964
203.0892	0.000204
205.7475	0.000690
208.4084	0.000880
211.0718	0.000436
213.7376	0.000521
216.4060	-0.001422
219.0769	-0.000260
221.7503	-0.000873
224.4262	0.001196
227.1046	-0.001274
229.7855	-0.000577
232.4688	-0.000472
235.1546	0.000753
237.8429	-0.000028
240.5337	-0.000239
243.2269	0.000647
245.9225	0.001091
248.6206	-0.000134
251.3212	0.001893
254.0242	0.000605
256.7296	-0.000577
259.4375	0.000141
262.1477	-0.000260
264.8604	-0.000915
267.5755	0.000394
270.2931	-0.001337
273.0130	0.001281
275.7353	0.001006
278.4600	-0.000725
281.1871	-0.000007
283.9166	0.001661
286.6484	0.000373
289.3827	0.000120
292.1193	0.000753
294.8582	0.000901
297.5995	-0.000683
300.3432	0.000711
303.0892	0.000584
305.8376	0.000753
308.5883	-0.000746
311.3413	0.000373
314.0967	0.001006
316.8543	0.001344
319.6143	0.001070
322.3766	0.000964
325.1412	-0.002266
327.9082	0.000141
330.6774	0.000985
333.4489	0.000880
336.2227	-0.000408
338.9987	0.002231
341.7771	0.000436
344.5577	0.000120
347.3406	0.001239
350.1257	0.001070
352.9131	-0.000070
355.7027	0.000373
358.4946	0.000415
361.2888	0.000985
364.0851	-0.000218
366.8837	0.000373
369.6845	0.000415
372.4876	-0.000767
375.2928	-0.000598
378.1003	-0.000176
380.9100	0.000521
383.7219	-0.000999
386.5359	-0.000873
389.3522	0.000479
392.1706	-0.000197
394.9912	0.002991
397.8140	0.002463
400.6390	0.005102
403.4661	0.005736
406.2954	0.008079
409.1269	0.009029
411.9605	0.008290
414.7962	0.010465
417.6341	0.012492
420.4741	0.015448
423.3162	0.017559
426.1605	0.018023
429.0068	0.016714
431.8553	0.018361
434.7059	0.022098
437.5586	0.020557
440.4135	0.020346
443.2703	0.023196
446.1293	0.021866
448.9904	0.021486
451.8535	0.021317
454.7188	0.016757
457.5860	0.016186
460.4554	0.017327
463.3268	0.013611
466.2003	0.014455
469.0758	0.010908
471.9533	0.008565
474.8329	0.008818
477.7145	0.007974
480.5982	0.006749
483.4838	0.006707
486.3715	0.014624
489.2612	0.004891
492.1529	0.004068
495.0466	0.004490
497.9423	0.003519
500.8400	0.002062
503.7397	0.005440
506.6414	0.002738
509.5450	0.003498
512.4506	0.001788
515.3582	0.003814
518.2677	0.002864
521.1792	0.002843
524.0927	0.005334
527.0081	0.004659
529.9254	0.005166
532.8447	0.004997
535.7659	0.007952
538.6890	0.007572
541.6140	0.011077
544.5410	0.014329
547.4699	0.015448
550.4007	0.017664
553.3333	0.020325
556.2679	0.025476
559.2044	0.024526
562.1427	0.032507
565.0829	0.038608
568.0250	0.051719
570.9690	0.101820
573.9149	0.144320
576.8626	0.169866
579.8121	0.194547
582.7635	0.247013
585.7167	0.219883
588.6718	0.186968
591.6288	0.128316
594.5875	0.163131
597.5481	0.149408
600.5105	0.174553
603.4747	0.183189
606.4407	0.160492
609.4085	0.133004
612.3781	0.125065
615.3495	0.126459
618.3227	0.106971
621.2977	0.072727
624.2745	0.084845
627.2530	0.068631
630.2333	0.060291
633.2154	0.046821
636.1992	0.043084
639.1848	0.039938
642.1721	0.029070
645.1612	0.028124
648.1520	0.030212
651.1445	0.027558
654.1388	0.032630
657.1348	0.853421
660.1325	0.061129
663.1319	0.022479
666.1330	0.024440
669.1359	0.021760
672.1404	0.031958
675.1466	0.028833
678.1545	0.028559
681.1641	0.033098
684.1754	0.033077
687.1883	0.044119
690.2029	0.035610
693.2192	0.040002
696.2371	0.029340
699.2567	0.035272
702.2779	0.027672
705.3008	0.024526
708.3253	0.036159
711.3514	0.030712
714.3791	0.034555
717.4085	0.028200
720.4395	0.026891
723.4721	0.028917
726.5063	0.033478
729.5421	0.035969
732.5795	0.042176
735.6185	0.048341
738.6591	0.039136
741.7013	0.033140
744.7450	0.030649
747.7903	0.029044
750.8372	0.039938
753.8856	0.043105
756.9356	0.051001
759.9872	0.058560
763.0403	0.049925
766.0949	0.048911
769.1510	0.049439
772.2087	0.041902
775.2679	0.031747
778.3287	0.025919
781.3909	0.035505
784.4547	0.033626
787.5199	0.030205
790.5867	0.025349
793.6550	0.025772
796.7247	0.021887
799.7959	0.019628
802.8686	0.016524
805.9428	0.022077
809.0185	0.024146
812.0956	0.018572
815.1742	0.016799
818.2542	0.014877
821.3357	0.015490
824.4186	0.009114
827.5029	0.015194
830.5887	0.012133
833.6759	0.010085
836.7646	0.008375
839.8546	0.007045
842.9461	0.004511
846.0390	0.005546
849.1333	0.004427
852.2289	0.006242
855.3260	0.012872
858.4245	0.011457
861.5243	0.006665
864.6255	0.007446
867.7281	0.005567
870.8321	0.006665
873.9374	0.004553
877.0441	0.005503
880.1521	0.009536
883.2615	0.005778
886.3722	0.006876
889.4843	0.006538
892.5977	0.005144
895.7124	0.004406
898.8284	0.004617
901.9458	0.004469
905.0644	0.005799
908.1844	0.003709
911.3057	0.003329
914.4283	0.003835
917.5521	0.003350
920.6773	0.004363
923.8037	0.004933
926.9314	0.002885
930.0604	0.002548
933.1906	0.002695
936.3221	0.001619
939.4549	0.002569
942.5889	0.001091
945.7241	0.000901
948.8606	0.002358
951.9983	0.001978
955.1373	0.001555
958.2775	0.001619
961.4189	0.001429
964.5615	0.000352
967.7053	0.001302
970.8504	0.000859
973.9966	0.000500
977.1440	-0.000873
980.2926	0.001239
983.4424	-0.000324
986.5934	0.001006
989.7456	0.000901
992.8989	0.000415
996.0534	0.001893
999.2090	-0.000662
1002.37	-0.000429
1005.52	-0.001147
1008.68	-0.000852
1011.84	0.000289
1015	0.001724
1018.17	-0.001210
1021.33	0.001133
1023.03	0.000394