Folder: Auto_Polymerization/Auto_Polymerization/Spectra/spectra_while_flow

Note: README.md
# Auto_Polymerization

[![Python 3.10](https://img.shields.io/badge/python-3.10-blue.svg)](https://www.python.org/downloads/)
[![License: MIT](https://img.shields.io/badge/License-MIT-yellow.svg)](https://opensource.org/licenses/MIT)

This repository contains the **Auto_Polymerization platform** for automated polymer synthesis and characterization.

## ğŸš€ Quick Start

### Device Testing

For testing real devices in your Auto_Polymerization platform, see the demo folder:

```bash
cd Auto_Polymerization/demo
python demo_device_test.py
```

This will guide you through testing individual devices with safe parameters.

For comprehensive device testing:

```bash
cd Auto_Polymerization/demo
python device_test_controller.py
```

ğŸ“– See [`Auto_Polymerization/demo/DEVICE_TESTING_README.md`](Auto_Polymerization/demo/DEVICE_TESTING_README.md) for detailed documentation.

## ğŸ“¦ Required Packages and Setup

### ğŸ”§ Hardware Drivers

Install drivers for the devices used in this project:

- **[Thorlabs CCS200 Spectrometer](https://www.thorlabs.com/thorproduct.cfm?partnumber=CCS200#ad-image-0)** - UV-VIS spectroscopy
- **[Thorlabs upLED Controller](https://www.thorlabs.com/thorproduct.cfm?partnumber=UPLED)** - LED control

### ğŸ Python Environment

**Python Version:** 3.10

Install the linear actuator and valves control package from the local source in editable mode:

```bash
pip install -e src/linear_actuator_and_valves/
```

### ğŸ“š Core Dependencies

```bash
pip install scipy numpy pandas matplotlib pyserial nmrglue requests pyyaml medusa-sdl
```

### ğŸ”¬ MatterLab Packages

Install from [MatterLab devices repository](https://gitlab.com/aspuru-guzik-group/self-driving-lab/devices):

#### Easy Installation (if available):
```bash
pip install matterlab_hotplates
pip install matterlab_pumps
pip install matterlab_serial_device
```

#### Manual Installation:

**Hotplates, Pumps, Serial Device:**

https://gitlab.com/aspuru-guzik-group/self-driving-lab/devices



**Spectrometers:**

- **NMR (Nanalysis Benchtop):**

  git clone https://gitlab.com/aspuru-guzik-group/self-driving-lab/devices/nmr
  cd nmr
  git checkout develop
  pip install -e .


- **UV-VIS (Thorlabs CCS200):**

  git clone https://gitlab.com/aspuru-guzik-group/self-driving-lab/devices/spectrometer
  cd spectrometer
  git checkout develop
  pip install -e .


> **Note:** If access is not public, contact Han Hao at University of Toronto.

### âš™ï¸ Configuration

**CSS200 Spectrometer DLL:**
Potentially you need to update the `DLL_FILE` value in `ccs_spectrometer.py` in the matterlab package:
The correct file path is typically: 
DLL_FILE = Path(r"C:\Program Files\IVI Foundation\VISA\Win64\Bin\TLCCS_64.dll")
#

**Arduino Setup:**
1. Install Arduino IDE on your PC
2. Upload the Arduino code from `users/setup/` to your Arduino board
3. An overview of the hardware connections of the GPIO pins is given in "Arduino_contacts_overview_2025_06_27_bb.jpg"
## âš ï¸ Important Notes



## ğŸ“ Project Struc

File: spectrum_2025-06-19_09-45-56.txt
# Wavelength (nm)	Intensity (a.u.)
197.7802	0.000237
200.4334	0.000596
203.0892	0.000723
205.7475	-0.000206
208.4084	0.000005
211.0718	0.000744
213.7376	-0.000670
216.4060	0.001018
219.0769	0.000512
221.7503	0.000702
224.4262	-0.000079
227.1046	-0.000269
229.7855	-0.000902
232.4688	-0.000227
235.1546	0.000491
237.8429	-0.000733
240.5337	-0.001113
243.2269	0.001081
245.9225	-0.000902
248.6206	0.000533
251.3212	0.001525
254.0242	0.000005
256.7296	0.000406
259.4375	0.000470
262.1477	-0.000733
264.8604	-0.000417
267.5755	-0.000628
270.2931	-0.000902
273.0130	0.000512
275.7353	0.000174
278.4600	0.001124
281.1871	0.000343
283.9166	0.000258
286.6484	-0.001071
289.3827	0.001440
292.1193	0.000216
294.8582	0.000343
297.5995	0.000364
300.3432	0.002073
303.0892	-0.001176
305.8376	0.001039
308.5883	0.001060
311.3413	0.000448
314.0967	0.000195
316.8543	0.000406
319.6143	-0.000121
322.3766	-0.000037
325.1412	0.000723
327.9082	0.001124
330.6774	0.000132
333.4489	0.001229
336.2227	0.001187
338.9987	0.000702
341.7771	-0.000522
344.5577	0.000132
347.3406	-0.001303
350.1257	0.001103
352.9131	0.000807
355.7027	-0.000121
358.4946	0.001377
361.2888	0.001335
364.0851	0.000005
366.8837	-0.000564
369.6845	-0.000142
372.4876	0.000765
375.2928	-0.000164
378.1003	-0.000438
380.9100	-0.000016
383.7219	0.000955
386.5359	0.001588
389.3522	0.002031
392.1706	0.006357
394.9912	0.009185
397.8140	0.014270
400.6390	0.019398
403.4661	0.021424
406.2954	0.026045
409.1269	0.026129
411.9605	0.027290
414.7962	0.029379
417.6341	0.027965
420.4741	0.032629
423.3162	0.034359
426.1605	0.029548
429.0068	0.029548
431.8553	0.030919
434.7059	0.029463
437.5586	0.029231
440.4135	0.029210
443.2703	0.031257
446.1293	0.031848
448.9904	0.027374
451.8535	0.026024
454.7188	0.021128
457.5860	0.020622
460.4554	0.018955
463.3268	0.017161
466.2003	0.016085
469.0758	0.012054
471.9533	0.009775
474.8329	0.009860
477.7145	0.009311
480.5982	0.006779
483.4838	0.006927
486.3715	0.017879
489.2612	0.005154
492.1529	0.002960
495.0466	0.004141
497.9423	0.004331
500.8400	0.002622
503.7397	0.004500
506.6414	0.003487
509.5450	0.004373
512.4506	0.002390
515.3582	0.002791
518.2677	0.002200
521.1792	0.002031
524.0927	0.004690
527.0081	0.003023
529.9254	0.005513
532.8447	0.004141
535.7659	0.006884
538.6890	0.009206
541.6140	0.010408
544.5410	0.014692
547.4699	0.017583
550.4007	0.018955
553.3333	0.023471
556.2679	0.026847
559.2044	0.024082
562.1427	0.032481
565.0829	0.040310
568.0250	0.054722
570.9690	0.115559
573.9149	0.156285
576.8626	0.184309
579.8121	0.211593
582.7635	0.264664
585.7167	0.240566
588.6718	0.202520
591.6288	0.132461
594.5875	0.171352
597.5481	0.157193
600.5105	0.185300
603.4747	0.192285
606.4407	0.161666
609.4085	0.134213
612.3781	0.132039
615.3495	0.131069
618.3227	0.111317
621.2977	0.076288
624.2745	0.085721
627.2530	0.069325
630.2333	0.063036
633.2154	0.046387
636.1992	0.042103
639.1848	0.040394
642.1721	0.031790
645.1612	0.028459
648.1520	0.030714
651.1445	0.029472
654.1388	0.031922
657.1348	0.870463
660.1325	0.056822
663.1319	0.022585
666.1330	0.021942
669.1359	0.021909
672.1404	0.032671
675.1466	0.024737
678.1545	0.028577
681.1641	0.034296
684.1754	0.033768
687.1883	0.044783
690.2029	0.035077
693.2192	0.039698
696.2371	0.027628
699.2567	0.037145
702.2779	0.030054
705.3008	0.025159
708.3253	0.038917
711.3514	0.031637
714.3791	0.034296
717.4085	0.030075
720.4395	0.027817
723.4721	0.026952
726.5063	0.034929
729.5421	0.035815
732.5795	0.041787
735.6185	0.049763
738.6591	0.039719
741.7013	0.034317
744.7450	0.029632
747.7903	0.029928
750.8372	0.040035
753.8856	0.041069
756.9356	0.050143
759.9872	0.061348
763.0403	0.049932
766.0949	0.049384
769.1510	0.048708
772.2087	0.043264
775.2679	0.030054
778.3287	0.026952
781.3909	0.034823
784.4547	0.033367
787.5199	0.027585
790.5867	0.025074
793.6550	0.022057
796.7247	0.021550
799.7959	0.022521
802.8686	0.017267
805.9428	0.019841
809.0185	0.024251
812.0956	0.016908
815.1742	0.015536
818.2542	0.014376
821.3357	0.015051
824.4186	0.010134
827.5029	0.013975
830.5887	0.010303
833.6759	0.009965
836.7646	0.006737
839.8546	0.007750
842.9461	0.005302
846.0390	0.005407
849.1333	0.006251
852.2289	0.005407
855.3260	0.012118
858.4245	0.008615
861.5243	0.006441
864.6255	0.006568
867.7281	0.005661
870.8321	0.005576
873.9374	0.005977
877.0441	0.005576
880.1521	0.006948
883.2615	0.005850
886.3722	0.006568
889.4843	0.002685
892.5977	0.005850
895.7124	0.003403
898.8284	0.006441
901.9458	0.004838
905.0644	0.004648
908.1844	0.003023
911.3057	0.004162
914.4283	0.003128
917.5521	0.004732
920.6773	0.002917
923.8037	0.003297
926.9314	0.001651
930.0604	0.003846
933.1906	0.001862
936.3221	0.000934
939.4549	0.001672
942.5889	-0.000121
945.7241	0.002664
948.8606	0.002031
951.9983	0.000554
955.1373	0.001672
958.2775	0.000153
961.4189	0.000828
964.5615	0.001060
967.7053	-0.000037
970.8504	0.000807
973.9966	0.000237
977.1440	0.001187
980.2926	0.000786
983.4424	0.000681
986.5934	0.000090
989.7456	-0.000459
992.8989	0.000343
996.0534	0.000069
999.2090	0.000111
1002.37	-0.000164
1005.52	0.000322
1008.68	-0.000881
1011.84	-0.000037
1015	0.000406
1018.17	0.000280
1021.33	-0.000564
1023.03	0.002200