Folder: Auto_Polymerization/Auto_Polymerization/Spectra/spectra_while_stopped

Note: README.md
# Auto_Polymerization

[![Python 3.10](https://img.shields.io/badge/python-3.10-blue.svg)](https://www.python.org/downloads/)
[![License: MIT](https://img.shields.io/badge/License-MIT-yellow.svg)](https://opensource.org/licenses/MIT)

This repository contains the **Auto_Polymerization platform** for automated polymer synthesis and characterization.

## ğŸš€ Quick Start

### Device Testing

For testing real devices in your Auto_Polymerization platform, see the demo folder:

```bash
cd Auto_Polymerization/demo
python demo_device_test.py
```

This will guide you through testing individual devices with safe parameters.

For comprehensive device testing:

```bash
cd Auto_Polymerization/demo
python device_test_controller.py
```

ğŸ“– See [`Auto_Polymerization/demo/DEVICE_TESTING_README.md`](Auto_Polymerization/demo/DEVICE_TESTING_README.md) for detailed documentation.

## ğŸ“¦ Required Packages and Setup

### ğŸ”§ Hardware Drivers

Install drivers for the devices used in this project:

- **[Thorlabs CCS200 Spectrometer](https://www.thorlabs.com/thorproduct.cfm?partnumber=CCS200#ad-image-0)** - UV-VIS spectroscopy
- **[Thorlabs upLED Controller](https://www.thorlabs.com/thorproduct.cfm?partnumber=UPLED)** - LED control

### ğŸ Python Environment

**Python Version:** 3.10

Install the linear actuator and valves control package from the local source in editable mode:

```bash
pip install -e src/linear_actuator_and_valves/
```

### ğŸ“š Core Dependencies

```bash
pip install scipy numpy pandas matplotlib pyserial nmrglue requests pyyaml medusa-sdl
```

### ğŸ”¬ MatterLab Packages

Install from [MatterLab devices repository](https://gitlab.com/aspuru-guzik-group/self-driving-lab/devices):

#### Easy Installation (if available):
```bash
pip install matterlab_hotplates
pip install matterlab_pumps
pip install matterlab_serial_device
```

#### Manual Installation:

**Hotplates, Pumps, Serial Device:**

https://gitlab.com/aspuru-guzik-group/self-driving-lab/devices



**Spectrometers:**

- **NMR (Nanalysis Benchtop):**

  git clone https://gitlab.com/aspuru-guzik-group/self-driving-lab/devices/nmr
  cd nmr
  git checkout develop
  pip install -e .


- **UV-VIS (Thorlabs CCS200):**

  git clone https://gitlab.com/aspuru-guzik-group/self-driving-lab/devices/spectrometer
  cd spectrometer
  git checkout develop
  pip install -e .


> **Note:** If access is not public, contact Han Hao at University of Toronto.

### âš™ï¸ Configuration

**CSS200 Spectrometer DLL:**
Potentially you need to update the `DLL_FILE` value in `ccs_spectrometer.py` in the matterlab package:
The correct file path is typically: 
DLL_FILE = Path(r"C:\Program Files\IVI Foundation\VISA\Win64\Bin\TLCCS_64.dll")
#

**Arduino Setup:**
1. Install Arduino IDE on your PC
2. Upload the Arduino code from `users/setup/` to your Arduino board
3. An overview of the hardware connections of the GPIO pins is given in "Arduino_contacts_overview_2025_06_27_bb.jpg"
## âš ï¸ Important Notes



## ğŸ“ Project Struc

File: spectrum_2025-06-19_11-06-50.txt
# Wavelength (nm)	Intensity (a.u.)
197.7802	-0.000100
200.4334	0.000005
203.0892	0.000723
205.7475	-0.001304
208.4084	0.000723
211.0718	0.000026
213.7376	0.000364
216.4060	0.001124
219.0769	0.000216
221.7503	0.000428
224.4262	-0.000523
227.1046	0.001779
229.7855	-0.000333
232.4688	-0.000311
235.1546	0.000406
237.8429	-0.000079
240.5337	0.001061
243.2269	0.000871
245.9225	0.000322
248.6206	0.000132
251.3212	0.001167
254.0242	0.000026
256.7296	-0.000079
259.4375	0.000575
262.1477	0.001040
264.8604	0.000808
267.5755	-0.000143
270.2931	-0.000691
273.0130	0.000786
275.7353	0.001631
278.4600	-0.000269
281.1871	0.000660
283.9166	-0.000586
286.6484	0.000934
289.3827	0.000723
292.1193	0.000491
294.8582	0.001230
297.5995	0.000765
300.3432	-0.001198
303.0892	0.000174
305.8376	0.000702
308.5883	-0.001072
311.3413	-0.000417
314.0967	-0.000396
316.8543	-0.000882
319.6143	0.000195
322.3766	0.001061
325.1412	-0.000164
327.9082	0.000385
330.6774	-0.000459
333.4489	-0.000438
336.2227	0.000238
338.9987	0.000596
341.7771	0.000955
344.5577	0.000449
347.3406	0.000554
350.1257	0.000808
352.9131	-0.000459
355.7027	0.001167
358.4946	0.000322
361.2888	-0.000354
364.0851	0.000934
366.8837	0.001821
369.6845	-0.000523
372.4876	0.000026
375.2928	-0.000818
378.1003	0.000195
380.9100	-0.000143
383.7219	0.000385
386.5359	-0.000016
389.3522	0.001378
392.1706	0.004249
394.9912	0.006128
397.8140	0.011829
400.6390	0.012061
403.4661	0.017361
406.2954	0.022048
409.1269	0.021330
411.9605	0.021014
414.7962	0.023083
417.6341	0.024033
420.4741	0.026757
423.3162	0.032394
426.1605	0.025279
429.0068	0.028910
431.8553	0.029016
434.7059	0.027010
437.5586	0.027432
440.4135	0.025300
443.2703	0.031106
446.1293	0.028446
448.9904	0.026778
451.8535	0.024075
454.7188	0.019937
457.5860	0.021035
460.4554	0.020612
463.3268	0.016432
466.2003	0.016622
469.0758	0.012779
471.9533	0.009612
474.8329	0.008240
477.7145	0.007944
480.5982	0.009211
483.4838	0.006128
486.3715	0.018015
489.2612	0.007290
492.1529	0.004460
495.0466	0.003848
497.9423	0.003067
500.8400	0.002813
503.7397	0.004460
506.6414	0.002286
509.5450	0.002518
512.4506	0.002032
515.3582	0.001737
518.2677	0.003574
521.1792	0.002053
524.0927	0.003679
527.0081	0.004777
529.9254	0.007057
532.8447	0.005981
535.7659	0.010055
538.6890	0.009697
541.6140	0.011027
544.5410	0.013666
547.4699	0.015777
550.4007	0.017720
553.3333	0.023125
556.2679	0.026123
559.2044	0.025785
562.1427	0.034020
565.0829	0.038116
568.0250	0.053339
570.9690	0.110769
573.9149	0.154284
576.8626	0.185322
579.8121	0.208399
582.7635	0.260593
585.7167	0.238972
588.6718	0.201748
591.6288	0.134437
594.5875	0.171492
597.5481	0.150716
600.5105	0.177594
603.4747	0.189756
606.4407	0.165496
609.4085	0.135683
612.3781	0.131017
615.3495	0.130257
618.3227	0.109502
621.2977	0.075445
624.2745	0.088810
627.2530	0.073439
630.2333	0.060687
633.2154	0.046076
636.1992	0.044851
639.1848	0.041008
642.1721	0.030914
645.1612	0.027398
648.1520	0.029546
651.1445	0.028658
654.1388	0.033519
657.1348	0.875730
660.1325	0.061356
663.1319	0.021777
666.1330	0.023508
669.1359	0.019789
672.1404	0.031127
675.1466	0.026018
678.1545	0.029248
681.1641	0.033175
684.1754	0.032415
687.1883	0.043183
690.2029	0.032880
693.2192	0.037018
696.2371	0.030261
699.2567	0.034759
702.2779	0.030979
705.3008	0.024941
708.3253	0.036701
711.3514	0.031761
714.3791	0.034379
717.4085	0.025469
720.4395	0.027137
723.4721	0.029396
726.5063	0.033640
729.5421	0.038052
732.5795	0.040671
735.6185	0.050108
738.6591	0.042550
741.7013	0.035223
744.7450	0.029522
747.7903	0.029712
750.8372	0.040291
753.8856	0.043838
756.9356	0.050003
759.9872	0.059504
763.0403	0.048440
766.0949	0.050552
769.1510	0.049011
772.2087	0.038834
775.2679	0.031634
778.3287	0.026123
781.3909	0.034505
784.4547	0.030029
787.5199	0.029396
790.5867	0.028171
793.6550	0.024624
796.7247	0.023589
799.7959	0.020570
802.8686	0.016537
805.9428	0.019578
809.0185	0.022660
812.0956	0.017466
815.1742	0.015545
818.2542	0.013898
821.3357	0.014806
824.4186	0.009739
827.5029	0.014658
830.5887	0.010520
833.6759	0.010330
836.7646	0.008050
839.8546	0.008092
842.9461	0.006656
846.0390	0.006867
849.1333	0.004355
852.2289	0.005706
855.3260	0.012906
858.4245	0.009359
861.5243	0.004524
864.6255	0.005495
867.7281	0.005157
870.8321	0.005410
873.9374	0.005220
877.0441	0.004671
880.1521	0.009929
883.2615	0.006128
886.3722	0.006529
889.4843	0.003996
892.5977	0.004925
895.7124	0.004777
898.8284	0.003679
901.9458	0.003700
905.0644	0.005516
908.1844	0.004249
911.3057	0.004165
914.4283	0.001863
917.5521	0.004439
920.6773	0.002222
923.8037	0.003658
926.9314	0.002264
930.0604	0.001019
933.1906	0.001504
936.3221	0.002349
939.4549	0.002497
942.5889	0.000744
945.7241	0.001082
948.8606	0.001209
951.9983	0.000913
955.1373	-0.000016
958.2775	0.000132
961.4189	0.000618
964.5615	0.000639
967.7053	0.000343
970.8504	0.002053
973.9966	-0.000185
977.1440	0.001483
980.2926	0.000470
983.4424	0.000132
986.5934	-0.001325
989.7456	-0.000248
992.8989	-0.000206
996.0534	0.000259
999.2090	0.000005
1002.37	0.000808
1005.52	0.000069
1008.68	-0.000565
1011.84	0.000259
1015	-0.001578
1018.17	0.002159
1021.33	0.000575
1023.03	-0.000776

File: spectrum_2025-06-19_11-43-57.txt
# Wavelength (nm)	Intensity (a.u.)
197.7802	0.001175
200.4334	-0.000134
203.0892	-0.000746
205.7475	0.000584
208.4084	0.001323
211.0718	0.000647
213.7376	0.001492
216.4060	0.000415
219.0769	0.000077
221.7503	-0.000260
224.4262	-0.000155
227.1046	0.000183
229.7855	-0.000493
232.4688	0.001049
235.1546	0.000352
237.8429	-0.000303
240.5337	0.000753
243.2269	-0.000282
245.9225	-0.000936
248.6206	-0.000683
251.3212	-0.000070
254.0242	-0.000218
256.7296	-0.000767
259.4375	0.000436
262.1477	0.000647
264.8604	-0.000704
267.5755	0.001429
270.2931	0.001070
273.0130	0.000690
275.7353	0.000246
278.4600	0.000289
281.1871	0.000183
283.9166	0.001027
286.6484	0.000880
289.3827	0.000690
292.1193	-0.000852
294.8582	0.000331
297.5995	0.000753
300.3432	0.000922
303.0892	0.001154
305.8376	0.001133
308.5883	0.000711
311.3413	0.001091
314.0967	-0.000704
316.8543	0.000880
319.6143	0.000267
322.3766	0.001006
325.1412	-0.000345
327.9082	0.001260
330.6774	-0.000028
333.4489	-0.000303
336.2227	-0.001020
338.9987	0.001302
341.7771	-0.000303
344.5577	0.001112
347.3406	-0.000239
350.1257	0.000289
352.9131	0.001175
355.7027	0.000289
358.4946	0.000267
361.2888	0.001534
364.0851	0.000837
366.8837	0.000859
369.6845	-0.000070
372.4876	0.000120
375.2928	0.000035
378.1003	0.000331
380.9100	0.001682
383.7219	-0.000556
386.5359	-0.000472
389.3522	-0.000070
392.1706	0.002041
394.9912	0.003054
397.8140	0.004384
400.6390	0.006221
403.4661	0.007678
406.2954	0.011225
409.1269	0.012048
411.9605	0.013210
414.7962	0.014687
417.6341	0.016208
420.4741	0.018551
423.3162	0.020367
426.1605	0.020113
429.0068	0.022267
431.8553	0.022077
434.7059	0.021275
437.5586	0.022541
440.4135	0.022267
443.2703	0.028115
446.1293	0.026215
448.9904	0.025919
451.8535	0.021908
454.7188	0.017263
457.5860	0.018150
460.4554	0.017031
463.3268	0.015025
466.2003	0.014582
469.0758	0.011711
471.9533	0.008691
474.8329	0.008839
477.7145	0.008565
480.5982	0.005862
483.4838	0.005947
486.3715	0.015279
489.2612	0.003857
492.1529	0.004342
495.0466	0.004089
497.9423	0.003983
500.8400	0.002273
503.7397	0.003835
506.6414	0.002062
509.5450	0.002907
512.4506	0.002146
515.3582	0.004194
518.2677	0.002928
521.1792	0.002632
524.0927	0.003477
527.0081	0.004089
529.9254	0.004216
532.8447	0.005926
535.7659	0.006643
538.6890	0.009515
541.6140	0.012998
544.5410	0.015469
547.4699	0.016651
550.4007	0.018108
553.3333	0.021296
556.2679	0.025561
559.2044	0.024062
562.1427	0.033795
565.0829	0.038270
568.0250	0.053472
570.9690	0.109146
573.9149	0.150506
576.8626	0.179156
579.8121	0.202422
582.7635	0.258498
585.7167	0.229721
588.6718	0.190515
591.6288	0.129541
594.5875	0.167037
597.5481	0.152448
600.5105	0.183294
603.4747	0.187390
606.4407	0.162857
609.4085	0.132201
612.3781	0.128021
615.3495	0.124368
618.3227	0.107309
621.2977	0.075936
624.2745	0.086429
627.2530	0.072621
630.2333	0.059531
633.2154	0.045575
636.1992	0.044288
639.1848	0.039411
642.1721	0.032029
645.1612	0.027137
648.1520	0.030146
651.1445	0.027898
654.1388	0.033056
657.1348	0.867292
660.1325	0.061299
663.1319	0.020584
666.1330	0.021941
669.1359	0.020177
672.1404	0.031725
675.1466	0.026194
678.1545	0.029593
681.1641	0.034048
684.1754	0.033985
687.1883	0.043316
690.2029	0.032950
693.2192	0.037785
696.2371	0.028221
699.2567	0.034153
702.2779	0.032063
705.3008	0.022837
708.3253	0.037531
711.3514	0.033077
714.3791	0.034512
717.4085	0.026870
720.4395	0.028284
723.4721	0.028010
726.5063	0.035695
729.5421	0.036919
732.5795	0.041290
735.6185	0.046821
738.6591	0.041817
741.7013	0.034597
744.7450	0.030248
747.7903	0.030205
750.8372	0.038735
753.8856	0.043739
756.9356	0.051930
759.9872	0.060734
763.0403	0.049270
766.0949	0.049312
769.1510	0.047518
772.2087	0.041374
775.2679	0.029192
778.3287	0.025983
781.3909	0.034681
784.4547	0.031578
787.5199	0.028305
790.5867	0.024864
793.6550	0.023133
796.7247	0.021908
799.7959	0.019586
802.8686	0.019100
805.9428	0.019501
809.0185	0.021929
812.0956	0.014814
815.1742	0.014519
818.2542	0.014455
821.3357	0.014962
824.4186	0.010507
827.5029	0.013611
830.5887	0.009916
833.6759	0.009642
836.7646	0.007910
839.8546	0.008079
842.9461	0.005883
846.0390	0.006116
849.1333	0.004574
852.2289	0.006876
855.3260	0.012281
858.4245	0.011879
861.5243	0.006601
864.6255	0.006031
867.7281	0.005862
870.8321	0.005989
873.9374	0.004638
877.0441	0.005081
880.1521	0.008290
883.2615	0.007382
886.3722	0.007024
889.4843	0.004828
892.5977	0.005630
895.7124	0.005313
898.8284	0.005356
901.9458	0.005187
905.0644	0.003941
908.1844	0.004807
911.3057	0.002674
914.4283	0.003265
917.5521	0.004701
920.6773	0.002083
923.8037	0.003392
926.9314	0.003835
930.0604	0.002590
933.1906	0.003223
936.3221	0.001766
939.4549	0.002336
942.5889	0.000626
945.7241	0.000647
948.8606	0.002210
951.9983	0.002062
955.1373	-0.000197
958.2775	0.001344
961.4189	0.000795
964.5615	0.001323
967.7053	0.001218
970.8504	0.000077
973.9966	0.001471
977.1440	0.001154
980.2926	0.000521
983.4424	0.000690
986.5934	0.000415
989.7456	0.000626
992.8989	0.001260
996.0534	-0.000999
999.2090	0.000267
1002.37	-0.000176
1005.52	0.000711
1008.68	0.000077
1011.84	0.000056
1015	-0.000113
1018.17	0.001175
1021.33	0.000605
1023.03	-0.000197

File: spectrum_2025-06-19_12-35-06.txt
# Wavelength (nm)	Intensity (a.u.)
197.7802	-0.000004
200.4334	-0.000341
203.0892	0.000672
205.7475	0.000081
208.4084	0.000355
211.0718	0.000186
213.7376	0.000461
216.4060	0.000229
219.0769	0.000862
221.7503	0.000081
224.4262	0.001031
227.1046	0.000946
229.7855	0.000165
232.4688	0.001284
235.1546	-0.000320
237.8429	-0.001165
240.5337	0.000186
243.2269	-0.000109
245.9225	-0.000109
248.6206	0.000904
251.3212	0.000566
254.0242	-0.000574
256.7296	0.000799
259.4375	0.000313
262.1477	0.000292
264.8604	0.000609
267.5755	0.000841
270.2931	-0.001038
273.0130	-0.000447
275.7353	-0.000637
278.4600	0.001010
281.1871	0.000292
283.9166	0.002044
286.6484	0.000123
289.3827	0.001073
292.1193	0.000693
294.8582	0.000925
297.5995	0.000081
300.3432	0.001411
303.0892	0.000313
305.8376	-0.000088
308.5883	0.000102
311.3413	0.000229
314.0967	0.000334
316.8543	0.000630
319.6143	-0.000046
322.3766	0.000946
325.1412	-0.000721
327.9082	0.000609
330.6774	0.001094
333.4489	0.000693
336.2227	0.000735
338.9987	0.001326
341.7771	-0.000637
344.5577	0.001073
347.3406	-0.000637
350.1257	-0.000172
352.9131	0.000334
355.7027	0.000609
358.4946	-0.000172
361.2888	0.001031
364.0851	0.000799
366.8837	0.001960
369.6845	0.000524
372.4876	0.000609
375.2928	-0.000531
378.1003	0.000123
380.9100	0.001305
383.7219	0.002129
386.5359	-0.000299
389.3522	0.001158
392.1706	0.000609
394.9912	0.003627
397.8140	0.003754
400.6390	0.005401
403.4661	0.005929
406.2954	0.006857
409.1269	0.010151
411.9605	0.009728
414.7962	0.012578
417.6341	0.014225
420.4741	0.016716
423.3162	0.017940
426.1605	0.017413
429.0068	0.018848
431.8553	0.019587
434.7059	0.020600
437.5586	0.019904
440.4135	0.021719
443.2703	0.025772
446.1293	0.024147
448.9904	0.022352
451.8535	0.021044
454.7188	0.017370
457.5860	0.016653
460.4554	0.016420
463.3268	0.013381
466.2003	0.014964
469.0758	0.009940
471.9533	0.007005
474.8329	0.008103
477.7145	0.006414
480.5982	0.007322
483.4838	0.006857
486.3715	0.015386
489.2612	0.005084
492.1529	0.005295
495.0466	0.004873
497.9423	0.005105
500.8400	0.003459
503.7397	0.004451
506.6414	0.001411
509.5450	0.004197
512.4506	0.001728
515.3582	0.002783
518.2677	0.002340
521.1792	0.003416
524.0927	0.004303
527.0081	0.004240
529.9254	0.006309
532.8447	0.007744
535.7659	0.007765
538.6890	0.009116
541.6140	0.012431
544.5410	0.013571
547.4699	0.016589
550.4007	0.018721
553.3333	0.022374
556.2679	0.027313
559.2044	0.025899
562.1427	0.033478
565.0829	0.039663
568.0250	0.053300
570.9690	0.106647
573.9149	0.149543
576.8626	0.172300
579.8121	0.197126
582.7635	0.252900
585.7167	0.226216
588.6718	0.192630
591.6288	0.127799
594.5875	0.167107
597.5481	0.148108
600.5105	0.183763
603.4747	0.182771
606.4407	0.161893
609.4085	0.129045
612.3781	0.129742
615.3495	0.125055
618.3227	0.110130
621.2977	0.074010
624.2745	0.086866
627.2530	0.072342
630.2333	0.059971
633.2154	0.044730
636.1992	0.043167
639.1848	0.038333
642.1721	0.030666
645.1612	0.028215
648.1520	0.030915
651.1445	0.028453
654.1388	0.034357
657.1348	0.858398
660.1325	0.061593
663.1319	0.023428
666.1330	0.024945
669.1359	0.020305
672.1404	0.030353
675.1466	0.026321
678.1545	0.028643
681.1641	0.034808
684.1754	0.032971
687.1883	0.045004
690.2029	0.036581
693.2192	0.039156
696.2371	0.030269
699.2567	0.035779
702.2779	0.031198
705.3008	0.023070
708.3253	0.039642
711.3514	0.033140
714.3791	0.033984
717.4085	0.027166
720.4395	0.028242
723.4721	0.027229
726.5063	0.032127
729.5421	0.037066
732.5795	0.042830
735.6185	0.047896
738.6591	0.040887
741.7013	0.034618
744.7450	0.028453
747.7903	0.029931
750.8372	0.038038
753.8856	0.042070
756.9356	0.050324
759.9872	0.060457
763.0403	0.051084
766.0949	0.051253
769.1510	0.047347
772.2087	0.040972
775.2679	0.029994
778.3287	0.025962
781.3909	0.034048
784.4547	0.029910
787.5199	0.030987
790.5867	0.024590
793.6550	0.022986
796.7247	0.022542
799.7959	0.023577
802.8686	0.016906
805.9428	0.020727
809.0185	0.022838
812.0956	0.016610
815.1742	0.016463
818.2542	0.015090
821.3357	0.016230
824.4186	0.011312
827.5029	0.014837
830.5887	0.010784
833.6759	0.009264
836.7646	0.008715
839.8546	0.007913
842.9461	0.005675
846.0390	0.004852
849.1333	0.004683
852.2289	0.006646
855.3260	0.011122
858.4245	0.011122
861.5243	0.007364
864.6255	0.007364
867.7281	0.003965
870.8321	0.004789
873.9374	0.006013
877.0441	0.005675
880.1521	0.008757
883.2615	0.005760
886.3722	0.006815
889.4843	0.005169
892.5977	0.004873
895.7124	0.004704
898.8284	0.005316
901.9458	0.005105
905.0644	0.005021
908.1844	0.003374
911.3057	0.004535
914.4283	0.002361
917.5521	0.004620
920.6773	0.004577
923.8037	0.004092
926.9314	0.001896
930.0604	0.001622
933.1906	0.002002
936.3221	0.002023
939.4549	0.002298
942.5889	0.001179
945.7241	0.001833
948.8606	0.001073
951.9983	0.002150
955.1373	0.001348
958.2775	0.001580
961.4189	0.001136
964.5615	0.002108
967.7053	0.000693
970.8504	0.002635
973.9966	-0.000384
977.1440	0.001918
980.2926	-0.000489
983.4424	0.000778
986.5934	0.001052
989.7456	0.001200
992.8989	0.000123
996.0534	0.000545
999.2090	0.000165
1002.37	-0.001143
1005.52	0.000440
1008.68	0.000144
1011.84	0.000482
1015	-0.000130
1018.17	0.000208
1021.33	-0.000384
1023.03	0.000756

File: spectrum_2025-06-19_12-50-27.txt
# Wavelength (nm)	Intensity (a.u.)
197.7802	0.001156
200.4334	0.001156
203.0892	0.000480
205.7475	-0.000744
208.4084	0.000733
211.0718	0.000670
213.7376	0.000121
216.4060	0.000565
219.0769	0.000839
221.7503	0.000881
224.4262	0.000755
227.1046	0.000818
229.7855	0.000586
232.4688	-0.000449
235.1546	0.000100
237.8429	0.000206
240.5337	-0.000660
243.2269	0.000670
245.9225	0.000164
248.6206	0.001134
251.3212	0.000121
254.0242	0.000586
256.7296	0.000923
259.4375	0.000332
262.1477	0.001092
264.8604	-0.000828
267.5755	0.000543
270.2931	0.000881
273.0130	0.001071
275.7353	0.001430
278.4600	0.000269
281.1871	-0.000343
283.9166	0.000797
286.6484	-0.000026
289.3827	0.001493
292.1193	0.000881
294.8582	0.000375
297.5995	0.000565
300.3432	0.000733
303.0892	0.000860
305.8376	0.001451
308.5883	0.000501
311.3413	0.001894
314.0967	0.001261
316.8543	-0.000132
319.6143	0.000628
322.3766	0.000079
325.1412	-0.000406
327.9082	0.000354
330.6774	-0.001293
333.4489	0.000459
336.2227	0.000923
338.9987	0.001683
341.7771	0.000522
344.5577	0.000480
347.3406	0.000691
350.1257	0.000543
352.9131	0.001535
355.7027	0.000185
358.4946	0.001388
361.2888	0.001113
364.0851	0.001324
366.8837	0.000142
369.6845	0.000691
372.4876	0.001156
375.2928	-0.000596
378.1003	0.000142
380.9100	0.000522
383.7219	0.001789
386.5359	0.001008
389.3522	0.000501
392.1706	0.000332
394.9912	0.002823
397.8140	0.002253
400.6390	0.003688
403.4661	0.006538
406.2954	0.006749
409.1269	0.008501
411.9605	0.008142
414.7962	0.010084
417.6341	0.012933
420.4741	0.015044
423.3162	0.017028
426.1605	0.017112
429.0068	0.017999
431.8553	0.017977
434.7059	0.021249
437.5586	0.020257
440.4135	0.019455
443.2703	0.024098
446.1293	0.021840
448.9904	0.022769
451.8535	0.019919
454.7188	0.018948
457.5860	0.016584
460.4554	0.016162
463.3268	0.014347
466.2003	0.015951
469.0758	0.012047
471.9533	0.007466
474.8329	0.008627
477.7145	0.007488
480.5982	0.007298
483.4838	0.006749
486.3715	0.015360
489.2612	0.004512
492.1529	0.006263
495.0466	0.003709
497.9423	0.004849
500.8400	0.003815
503.7397	0.003604
506.6414	0.003456
509.5450	0.005081
512.4506	0.003097
515.3582	0.003076
518.2677	0.003498
521.1792	0.002739
524.0927	0.003541
527.0081	0.004512
529.9254	0.005377
532.8447	0.005060
535.7659	0.008395
538.6890	0.009915
541.6140	0.011983
544.5410	0.013123
547.4699	0.017809
550.4007	0.016690
553.3333	0.019413
556.2679	0.026061
559.2044	0.024584
562.1427	0.030684
565.0829	0.038303
568.0250	0.053120
570.9690	0.105443
573.9149	0.146411
576.8626	0.173131
579.8121	0.197446
582.7635	0.250255
585.7167	0.224399
588.6718	0.190291
591.6288	0.125578
594.5875	0.164182
597.5481	0.147360
600.5105	0.176762
603.4747	0.180498
606.4407	0.165132
609.4085	0.131066
612.3781	0.124481
615.3495	0.126549
618.3227	0.107617
621.2977	0.073530
624.2745	0.082627
627.2530	0.073213
630.2333	0.061731
633.2154	0.044529
636.1992	0.043727
639.1848	0.041427
642.1721	0.030169
645.1612	0.027579
648.1520	0.031413
651.1445	0.031257
654.1388	0.033368
657.1348	0.857412
660.1325	0.059605
663.1319	0.019822
666.1330	0.024015
669.1359	0.020890
672.1404	0.033660
675.1466	0.027074
678.1545	0.026568
681.1641	0.033681
684.1754	0.033427
687.1883	0.043727
690.2029	0.034251
693.2192	0.039654
696.2371	0.030071
699.2567	0.036530
702.2779	0.029375
705.3008	0.025365
708.3253	0.038387
711.3514	0.032541
714.3791	0.035243
717.4085	0.027560
720.4395	0.029966
723.4721	0.029375
726.5063	0.033280
729.5421	0.038535
732.5795	0.040055
735.6185	0.048139
738.6591	0.040646
741.7013	0.034588
744.7450	0.030430
747.7903	0.031275
750.8372	0.042081
753.8856	0.043263
756.9356	0.052508
759.9872	0.061963
763.0403	0.048497
766.0949	0.052001
769.1510	0.050249
772.2087	0.040245
775.2679	0.030726
778.3287	0.025977
781.3909	0.034989
784.4547	0.030768
787.5199	0.028510
790.5867	0.026209
793.6550	0.022937
796.7247	0.023106
799.7959	0.019244
802.8686	0.018484
805.9428	0.019159
809.0185	0.024309
812.0956	0.016542
815.1742	0.016183
818.2542	0.014453
821.3357	0.015698
824.4186	0.010632
827.5029	0.014263
830.5887	0.009028
833.6759	0.009556
836.7646	0.007846
839.8546	0.008564
842.9461	0.005419
846.0390	0.007108
849.1333	0.004427
852.2289	0.006854
855.3260	0.012342
858.4245	0.010358
861.5243	0.006031
864.6255	0.006538
867.7281	0.005736
870.8321	0.007002
873.9374	0.004701
877.0441	0.006538
880.1521	0.007973
883.2615	0.005757
886.3722	0.006474
889.4843	0.004596
892.5977	0.005968
895.7124	0.006580
898.8284	0.005461
901.9458	0.005356
905.0644	0.005609
908.1844	0.004026
911.3057	0.004786
914.4283	0.003330
917.5521	0.004448
920.6773	0.003245
923.8037	0.003878
926.9314	0.003393
930.0604	0.002929
933.1906	0.002464
936.3221	0.002907
939.4549	0.001789
942.5889	0.001430
945.7241	0.001725
948.8606	0.001303
951.9983	0.001662
955.1373	0.002126
958.2775	0.001937
961.4189	0.001261
964.5615	0.001747
967.7053	0.001367
970.8504	0.000818
973.9966	0.000417
977.1440	0.000691
980.2926	0.001134
983.4424	0.000691
986.5934	0.002148
989.7456	0.001367
992.8989	0.001113
996.0534	0.001747
999.2090	0.000902
1002.37	0.000565
1005.52	0.000733
1008.68	0.001113
1011.84	0.000797
1015	0.000079
1018.17	0.001324
1021.33	0.000797
1023.03	0.000290