Folder: Auto_Polymerization/Auto_Polymerization/Spectra (part 3)

File: spectrum_2025-06-19_11-01-43.txt
# Wavelength (nm)	Intensity (a.u.)
197.7802	0.002118
200.4334	-0.000521
203.0892	0.001295
205.7475	0.000408
208.4084	-0.000289
211.0718	0.001591
213.7376	-0.001070
216.4060	0.000809
219.0769	0.000155
221.7503	0.000472
224.4262	0.000809
227.1046	-0.000289
229.7855	0.000577
232.4688	0.000598
235.1546	-0.000542
237.8429	0.000007
240.5337	-0.000246
243.2269	0.000472
245.9225	-0.000289
248.6206	-0.000690
251.3212	0.000493
254.0242	0.000704
256.7296	-0.000120
259.4375	0.000493
262.1477	0.001569
264.8604	0.000619
267.5755	0.000514
270.2931	-0.001154
273.0130	-0.001260
275.7353	-0.001070
278.4600	0.001316
281.1871	0.000873
283.9166	-0.000838
286.6484	-0.000774
289.3827	0.000704
292.1193	0.000408
294.8582	-0.000077
297.5995	0.000091
300.3432	0.000091
303.0892	0.000598
305.8376	0.000852
308.5883	0.000408
311.3413	0.001464
314.0967	0.000809
316.8543	0.000514
319.6143	0.000324
322.3766	0.000725
325.1412	-0.000099
327.9082	0.000493
330.6774	0.000640
333.4489	-0.000310
336.2227	0.000070
338.9987	0.000725
341.7771	-0.000669
344.5577	0.001844
347.3406	0.000260
350.1257	0.001443
352.9131	0.000619
355.7027	0.000324
358.4946	0.000366
361.2888	0.000873
364.0851	-0.000479
366.8837	0.000725
369.6845	-0.000795
372.4876	0.000830
375.2928	0.001295
378.1003	0.000767
380.9100	-0.000901
383.7219	0.000894
386.5359	0.000366
389.3522	0.002351
392.1706	0.001548
394.9912	0.008579
397.8140	0.012422
400.6390	0.014935
403.4661	0.016560
406.2954	0.021163
409.1269	0.022134
411.9605	0.022282
414.7962	0.024520
417.6341	0.024246
420.4741	0.029672
423.3162	0.031952
426.1605	0.025977
429.0068	0.030474
431.8553	0.029799
434.7059	0.028912
437.5586	0.031636
440.4135	0.028025
443.2703	0.031234
446.1293	0.030411
448.9904	0.028996
451.8535	0.024330
454.7188	0.021015
457.5860	0.019727
460.4554	0.019390
463.3268	0.016560
466.2003	0.016032
469.0758	0.012971
471.9533	0.010099
474.8329	0.009487
477.7145	0.008579
480.5982	0.007334
483.4838	0.006616
486.3715	0.016898
489.2612	0.004610
492.1529	0.004399
495.0466	0.004124
497.9423	0.002562
500.8400	0.002034
503.7397	0.002942
506.6414	0.003364
509.5450	0.003660
512.4506	0.002034
515.3582	0.002330
518.2677	0.004694
521.1792	0.003090
524.0927	0.003533
527.0081	0.003976
529.9254	0.006046
532.8447	0.004166
535.7659	0.008917
538.6890	0.009297
541.6140	0.012549
544.5410	0.014428
547.4699	0.015272
550.4007	0.017257
553.3333	0.022050
556.2679	0.026653
559.2044	0.028236
562.1427	0.032353
565.0829	0.041876
568.0250	0.054713
570.9690	0.112523
573.9149	0.153230
576.8626	0.184669
579.8121	0.205656
582.7635	0.267751
585.7167	0.236756
588.6718	0.197316
591.6288	0.133679
594.5875	0.173668
597.5481	0.153568
600.5105	0.182029
603.4747	0.189039
606.4407	0.165371
609.4085	0.134143
612.3781	0.137880
615.3495	0.132496
618.3227	0.110855
621.2977	0.077875
624.2745	0.087439
627.2530	0.070422
630.2333	0.060878
633.2154	0.046267
636.1992	0.044747
639.1848	0.039553
642.1721	0.032513
645.1612	0.029262
648.1520	0.030733
651.1445	0.029235
654.1388	0.034310
657.1348	0.874358
660.1325	0.060530
663.1319	0.023231
666.1330	0.023678
669.1359	0.019748
672.1404	0.033092
675.1466	0.025850
678.1545	0.028743
681.1641	0.032565
684.1754	0.032311
687.1883	0.043692
690.2029	0.034803
693.2192	0.039152
696.2371	0.031424
699.2567	0.034423
702.2779	0.031023
705.3008	0.024520
708.3253	0.036851
711.3514	0.035732
714.3791	0.034401
717.4085	0.029524
720.4395	0.027814
723.4721	0.028257
726.5063	0.033937
729.5421	0.037379
732.5795	0.039870
735.6185	0.046943
738.6591	0.039891
741.7013	0.033261
744.7450	0.028574
747.7903	0.031783
750.8372	0.038033
753.8856	0.040630
756.9356	0.049456
759.9872	0.059654
763.0403	0.050237
766.0949	0.050554
769.1510	0.047661
772.2087	0.042657
775.2679	0.030390
778.3287	0.025850
781.3909	0.034739
784.4547	0.032290
787.5199	0.028764
790.5867	0.024795
793.6550	0.023486
796.7247	0.021754
799.7959	0.021839
802.8686	0.017489
805.9428	0.019390
809.0185	0.021058
812.0956	0.017912
815.1742	0.015061
818.2542	0.012865
821.3357	0.016222
824.4186	0.010543
827.5029	0.014787
830.5887	0.009107
833.6759	0.011071
836.7646	0.006236
839.8546	0.007946
842.9461	0.003913
846.0390	0.006003
849.1333	0.005729
852.2289	0.004314
855.3260	0.012865
858.4245	0.009128
861.5243	0.006278
864.6255	0.007376
867.7281	0.005222
870.8321	0.005180
873.9374	0.004378
877.0441	0.004314
880.1521	0.008812
883.2615	0.005856
886.3722	0.005391
889.4843	0.004715
892.5977	0.005264
895.7124	0.005117
898.8284	0.005222
901.9458	0.005666
905.0644	0.006109
908.1844	0.005138
911.3057	0.003322
914.4283	0.003069
917.5521	0.005792
920.6773	0.003216
923.8037	0.001696
926.9314	0.001971
930.0604	0.002308
933.1906	0.002287
936.3221	0.001527
939.4549	0.003026
942.5889	0.002076
945.7241	0.001211
948.8606	0.001084
951.9983	0.001358
955.1373	0.001548
958.2775	0.001971
961.4189	0.001464
964.5615	0.002140
967.7053	0.000197
970.8504	0.000830
973.9966	-0.000204
977.1440	0.000345
980.2926	0.000049
983.4424	0.000493
986.5934	0.002140
989.7456	-0.000099
992.8989	0.001717
996.0534	0.000915
999.2090	-0.000394
1002.37	-0.000795
1005.52	0.001211
1008.68	-0.000626
1011.84	0.000767
1015	0.001612
1018.17	0.000408
1021.33	0.000450
1023.03	-0.001640

File: spectrum_2025-06-19_11-13-16.txt
# Wavelength (nm)	Intensity (a.u.)
197.7802	0.000922
200.4334	-0.000282
203.0892	-0.000176
205.7475	-0.000429
208.4084	0.000099
211.0718	-0.000472
213.7376	0.000373
216.4060	0.000753
219.0769	-0.000113
221.7503	0.000373
224.4262	-0.000704
227.1046	0.000880
229.7855	0.000690
232.4688	-0.000788
235.1546	-0.000282
237.8429	-0.000556
240.5337	-0.000070
243.2269	-0.000915
245.9225	-0.000134
248.6206	-0.000852
251.3212	0.000795
254.0242	0.001028
256.7296	0.000394
259.4375	-0.000366
262.1477	-0.001105
264.8604	-0.000092
267.5755	0.000458
270.2931	-0.000113
273.0130	-0.000197
275.7353	-0.000092
278.4600	0.000943
281.1871	-0.000429
283.9166	0.000943
286.6484	-0.000007
289.3827	0.000436
292.1193	-0.000873
294.8582	0.000711
297.5995	0.000542
300.3432	0.000521
303.0892	-0.000598
305.8376	0.000542
308.5883	0.000817
311.3413	-0.000451
314.0967	-0.000704
316.8543	0.000732
319.6143	0.001091
322.3766	0.000035
325.1412	0.000648
327.9082	-0.000725
330.6774	-0.000408
333.4489	0.000605
336.2227	0.000648
338.9987	0.000732
341.7771	0.001450
344.5577	-0.000155
347.3406	-0.001506
350.1257	-0.000134
352.9131	0.000246
355.7027	0.001788
358.4946	0.000458
361.2888	-0.000746
364.0851	0.001133
366.8837	-0.000113
369.6845	0.001408
372.4876	-0.000662
375.2928	0.000479
378.1003	0.000838
380.9100	-0.001168
383.7219	-0.000451
386.5359	-0.000641
389.3522	0.002780
392.1706	0.003435
394.9912	0.007067
397.8140	0.010171
400.6390	0.012938
403.4661	0.014374
406.2954	0.015197
409.1269	0.018872
411.9605	0.019632
414.7962	0.024278
417.6341	0.023581
420.4741	0.025629
423.3162	0.028522
426.1605	0.024954
429.0068	0.027150
431.8553	0.028670
434.7059	0.027699
437.5586	0.027614
440.4135	0.028184
443.2703	0.030803
446.1293	0.028227
448.9904	0.026009
451.8535	0.024383
454.7188	0.021448
457.5860	0.021068
460.4554	0.019125
463.3268	0.015620
466.2003	0.015430
469.0758	0.013043
471.9533	0.009411
474.8329	0.009263
477.7145	0.007152
480.5982	0.009453
483.4838	0.007490
486.3715	0.017584
489.2612	0.006117
492.1529	0.004639
495.0466	0.003055
497.9423	0.004047
500.8400	0.003203
503.7397	0.002633
506.6414	0.002675
509.5450	0.003604
512.4506	0.003731
515.3582	0.003710
518.2677	0.001239
521.1792	0.002802
524.0927	0.004195
527.0081	0.003942
529.9254	0.004554
532.8447	0.005441
535.7659	0.007870
538.6890	0.009369
541.6140	0.012389
544.5410	0.015873
547.4699	0.017330
550.4007	0.019864
553.3333	0.023285
556.2679	0.026622
559.2044	0.025714
562.1427	0.033612
565.0829	0.040369
568.0250	0.057854
570.9690	0.110183
573.9149	0.154107
576.8626	0.184473
579.8121	0.208484
582.7635	0.261762
585.7167	0.238048
588.6718	0.199973
591.6288	0.134827
594.5875	0.172859
597.5481	0.153431
600.5105	0.185571
603.4747	0.189098
606.4407	0.163567
609.4085	0.135587
612.3781	0.131912
615.3495	0.128555
618.3227	0.108599
621.2977	0.077282
624.2745	0.086827
627.2530	0.072024
630.2333	0.061719
633.2154	0.044360
636.1992	0.043896
639.1848	0.041045
642.1721	0.030609
645.1612	0.026582
648.1520	0.029801
651.1445	0.028565
654.1388	0.033960
657.1348	0.873831
660.1325	0.061694
663.1319	0.021326
666.1330	0.023605
669.1359	0.021828
672.1404	0.032387
675.1466	0.026495
678.1545	0.027762
681.1641	0.035449
684.1754	0.033675
687.1883	0.042523
690.2029	0.033379
693.2192	0.038722
696.2371	0.029494
699.2567	0.034330
702.2779	0.031310
705.3008	0.024552
708.3253	0.039144
711.3514	0.032535
714.3791	0.033949
717.4085	0.029578
720.4395	0.027171
723.4721	0.028058
726.5063	0.034921
729.5421	0.036209
732.5795	0.040855
735.6185	0.047507
738.6591	0.042396
741.7013	0.035744
744.7450	0.031141
747.7903	0.032281
750.8372	0.040242
753.8856	0.043368
756.9356	0.051899
759.9872	0.060642
763.0403	0.049555
766.0949	0.048415
769.1510	0.047084
772.2087	0.041531
775.2679	0.030972
778.3287	0.025904
781.3909	0.033823
784.4547	0.028818
787.5199	0.029093
790.5867	0.025608
793.6550	0.023032
796.7247	0.022757
799.7959	0.022314
802.8686	0.016845
805.9428	0.021005
809.0185	0.022145
812.0956	0.017394
815.1742	0.018492
818.2542	0.014416
821.3357	0.015028
824.4186	0.011101
827.5029	0.013318
830.5887	0.010594
833.6759	0.010911
836.7646	0.007912
839.8546	0.009580
842.9461	0.005526
846.0390	0.005357
849.1333	0.004913
852.2289	0.005695
855.3260	0.014437
858.4245	0.009939
861.5243	0.006835
864.6255	0.007025
867.7281	0.006265
870.8321	0.004744
873.9374	0.004956
877.0441	0.003836
880.1521	0.009559
883.2615	0.006919
886.3722	0.005864
889.4843	0.004618
892.5977	0.005293
895.7124	0.003456
898.8284	0.004618
901.9458	0.004280
905.0644	0.005800
908.1844	0.004428
911.3057	0.003182
914.4283	0.003646
917.5521	0.004765
920.6773	0.003646
923.8037	0.003520
926.9314	0.002633
930.0604	0.003435
933.1906	0.002041
936.3221	0.001197
939.4549	0.001830
942.5889	0.000711
945.7241	0.000753
948.8606	0.001366
951.9983	0.000204
955.1373	-0.000260
958.2775	0.001725
961.4189	0.001323
964.5615	0.000500
967.7053	-0.000429
970.8504	0.001471
973.9966	-0.000429
977.1440	0.000795
980.2926	-0.000894
983.4424	0.000458
986.5934	-0.000324
989.7456	0.001682
992.8989	0.000077
996.0534	0.000859
999.2090	-0.000176
1002.37	0.000436
1005.52	0.000458
1008.68	-0.000218
1011.84	0.000394
1015	-0.000619
1018.17	-0.000493
1021.33	-0.001042
1023.03	-0.000831

File: spectrum_2025-06-19_11-18-23.txt
# Wavelength (nm)	Intensity (a.u.)
197.7802	-0.001421
200.4334	-0.001759
203.0892	0.001872
205.7475	0.000668
208.4084	0.001893
211.0718	0.000816
213.7376	0.001344
216.4060	0.001872
219.0769	0.000795
221.7503	0.001555
224.4262	0.000457
227.1046	0.000141
229.7855	0.000500
232.4688	0.000225
235.1546	0.001112
237.8429	-0.000894
240.5337	0.000753
243.2269	0.001259
245.9225	-0.000155
248.6206	-0.000239
251.3212	0.000099
254.0242	-0.001337
256.7296	0.000858
259.4375	-0.000070
262.1477	0.001428
264.8604	0.000120
267.5755	0.000605
270.2931	0.000521
273.0130	0.001302
275.7353	0.000310
278.4600	0.001259
281.1871	0.000964
283.9166	-0.000598
286.6484	0.000183
289.3827	0.000668
292.1193	-0.000682
294.8582	0.000774
297.5995	0.000267
300.3432	-0.000197
303.0892	0.000732
305.8376	0.000753
308.5883	0.000943
311.3413	0.000584
314.0967	0.000858
316.8543	-0.000007
319.6143	0.000901
322.3766	0.001259
325.1412	0.000626
327.9082	0.000711
330.6774	0.000373
333.4489	0.000225
336.2227	0.000246
338.9987	0.000288
341.7771	0.001660
344.5577	0.001365
347.3406	0.000668
350.1257	0.002821
352.9131	0.000943
355.7027	0.001217
358.4946	-0.000218
361.2888	0.000753
364.0851	-0.000345
366.8837	0.000584
369.6845	-0.000788
372.4876	0.001154
375.2928	0.000331
378.1003	0.001893
380.9100	-0.000049
383.7219	0.001027
386.5359	0.001829
389.3522	0.001534
392.1706	0.002821
394.9912	0.005333
397.8140	0.009576
400.6390	0.009977
403.4661	0.014452
406.2954	0.016098
409.1269	0.017977
411.9605	0.018251
414.7962	0.019201
417.6341	0.023127
420.4741	0.023253
423.3162	0.027327
426.1605	0.025047
429.0068	0.026968
431.8553	0.025681
434.7059	0.025280
437.5586	0.026799
440.4135	0.025681
443.2703	0.031084
446.1293	0.027981
448.9904	0.025512
451.8535	0.024942
454.7188	0.019750
457.5860	0.020594
460.4554	0.017533
463.3268	0.016372
466.2003	0.015908
469.0758	0.011961
471.9533	0.008478
474.8329	0.009913
477.7145	0.007718
480.5982	0.008816
483.4838	0.007761
486.3715	0.018525
489.2612	0.006790
492.1529	0.005439
495.0466	0.004214
497.9423	0.003898
500.8400	0.002674
503.7397	0.004024
506.6414	0.003032
509.5450	0.004784
512.4506	0.003096
515.3582	0.004236
518.2677	0.003581
521.1792	0.003476
524.0927	0.003771
527.0081	0.005439
529.9254	0.005502
532.8447	0.005692
535.7659	0.007655
538.6890	0.010378
541.6140	0.011919
544.5410	0.015781
547.4699	0.017111
550.4007	0.020826
553.3333	0.021924
556.2679	0.026061
559.2044	0.024900
562.1427	0.034630
565.0829	0.038493
568.0250	0.055907
570.9690	0.111187
573.9149	0.152241
576.8626	0.178836
579.8121	0.209125
582.7635	0.259762
585.7167	0.236481
588.6718	0.198192
591.6288	0.129614
594.5875	0.171765
597.5481	0.153317
600.5105	0.184155
603.4747	0.189517
606.4407	0.167058
609.4085	0.136685
612.3781	0.128221
615.3495	0.125139
618.3227	0.109857
621.2977	0.075241
624.2745	0.090924
627.2530	0.069732
630.2333	0.061437
633.2154	0.046830
636.1992	0.045416
639.1848	0.041849
642.1721	0.032531
645.1612	0.026928
648.1520	0.029370
651.1445	0.028360
654.1388	0.033645
657.1348	0.866460
660.1325	0.061198
663.1319	0.022495
666.1330	0.024707
669.1359	0.020974
672.1404	0.034103
675.1466	0.028910
678.1545	0.029839
681.1641	0.032625
684.1754	0.031929
687.1883	0.043221
690.2029	0.033279
693.2192	0.038915
696.2371	0.027960
699.2567	0.039464
702.2779	0.031760
705.3008	0.026040
708.3253	0.038788
711.3514	0.034905
714.3791	0.036488
717.4085	0.029396
720.4395	0.027707
723.4721	0.029311
726.5063	0.035812
729.5421	0.037015
732.5795	0.041321
735.6185	0.049194
738.6591	0.039021
741.7013	0.035306
744.7450	0.030704
747.7903	0.032583
750.8372	0.041237
753.8856	0.042672
756.9356	0.053606
759.9872	0.061796
763.0403	0.049511
766.0949	0.050503
769.1510	0.049384
772.2087	0.039422
775.2679	0.031485
778.3287	0.026293
781.3909	0.035137
784.4547	0.030578
787.5199	0.031169
790.5867	0.026314
793.6550	0.023338
796.7247	0.022726
799.7959	0.020889
802.8686	0.018251
805.9428	0.021333
809.0185	0.021902
812.0956	0.016710
815.1742	0.015190
818.2542	0.014283
821.3357	0.015908
824.4186	0.012151
827.5029	0.013523
830.5887	0.010146
833.6759	0.009365
836.7646	0.008731
839.8546	0.007106
842.9461	0.004848
846.0390	0.006536
849.1333	0.005544
852.2289	0.007085
855.3260	0.013776
858.4245	0.010547
861.5243	0.006177
864.6255	0.006874
867.7281	0.005270
870.8321	0.006937
873.9374	0.006220
877.0441	0.005059
880.1521	0.008436
883.2615	0.006621
886.3722	0.006621
889.4843	0.004531
892.5977	0.006030
895.7124	0.004172
898.8284	0.005819
901.9458	0.005270
905.0644	0.005966
908.1844	0.004278
911.3057	0.004067
914.4283	0.004046
917.5521	0.003771
920.6773	0.002885
923.8037	0.004890
926.9314	0.002104
930.0604	0.003011
933.1906	0.002315
936.3221	0.002695
939.4549	0.002885
942.5889	0.001534
945.7241	0.000879
948.8606	0.001682
951.9983	0.002040
955.1373	0.001217
958.2775	0.001428
961.4189	0.001238
964.5615	0.001133
967.7053	0.000542
970.8504	0.001344
973.9966	0.000563
977.1440	0.001576
980.2926	0.001914
983.4424	0.001154
986.5934	-0.000324
989.7456	0.001365
992.8989	0.000816
996.0534	0.000331
999.2090	-0.000007
1002.37	0.000331
1005.52	0.000352
1008.68	0.000605
1011.84	0.000901
1015	0.001196
1018.17	0.000690
1021.33	0.001597
1023.03	0.000668

File: spectrum_2025-06-19_11-33-43.txt
# Wavelength (nm)	Intensity (a.u.)
197.7802	0.001771
200.4334	-0.000213
203.0892	0.000209
205.7475	-0.000508
208.4084	0.001285
211.0718	0.000378
213.7376	0.002277
216.4060	0.001011
219.0769	0.001243
221.7503	0.001433
224.4262	-0.000192
227.1046	0.000652
229.7855	0.003037
232.4688	0.001792
235.1546	-0.000171
237.8429	0.000927
240.5337	0.000842
243.2269	-0.000761
245.9225	0.000652
248.6206	0.000040
251.3212	0.000695
254.0242	0.000505
256.7296	0.000948
259.4375	0.000336
262.1477	-0.000529
264.8604	0.002087
267.5755	0.001771
270.2931	0.000927
273.0130	0.001539
275.7353	-0.000445
278.4600	0.000674
281.1871	-0.000593
283.9166	0.000948
286.6484	0.000568
289.3827	0.000758
292.1193	0.000462
294.8582	0.001201
297.5995	0.001581
300.3432	0.000230
303.0892	0.000315
305.8376	-0.000192
308.5883	0.001454
311.3413	0.001771
314.0967	-0.000149
316.8543	0.001623
319.6143	0.001053
322.3766	0.001074
325.1412	0.000526
327.9082	0.001138
330.6774	0.000188
333.4489	-0.000424
336.2227	0.001307
338.9987	0.001602
341.7771	0.000863
344.5577	0.001096
347.3406	-0.000487
350.1257	0.001539
352.9131	-0.000403
355.7027	0.001940
358.4946	0.001729
361.2888	0.001349
364.0851	0.000378
366.8837	0.000125
369.6845	0.000526
372.4876	0.001813
375.2928	0.000842
378.1003	0.001264
380.9100	-0.000234
383.7219	0.000188
386.5359	0.000209
389.3522	0.002172
392.1706	0.001708
394.9912	0.003818
397.8140	0.005949
400.6390	0.008460
403.4661	0.011604
406.2954	0.014221
409.1269	0.015002
411.9605	0.015698
414.7962	0.017407
417.6341	0.017893
420.4741	0.020362
423.3162	0.023675
426.1605	0.023569
429.0068	0.023042
431.8553	0.024498
434.7059	0.024371
437.5586	0.024814
440.4135	0.023126
443.2703	0.028085
446.1293	0.027072
448.9904	0.023696
451.8535	0.024772
454.7188	0.020362
457.5860	0.020108
460.4554	0.018357
463.3268	0.016247
466.2003	0.016901
469.0758	0.011414
471.9533	0.010929
474.8329	0.010338
477.7145	0.008692
480.5982	0.009663
483.4838	0.006941
486.3715	0.017154
489.2612	0.005907
492.1529	0.006076
495.0466	0.003311
497.9423	0.004155
500.8400	0.003375
503.7397	0.002341
506.6414	0.003375
509.5450	0.003923
512.4506	0.002847
515.3582	0.003269
518.2677	0.003185
521.1792	0.004831
524.0927	0.004029
527.0081	0.003649
529.9254	0.006244
532.8447	0.006645
535.7659	0.007110
538.6890	0.010254
541.6140	0.013672
544.5410	0.015424
547.4699	0.016247
550.4007	0.019222
553.3333	0.023084
556.2679	0.028802
559.2044	0.026080
562.1427	0.032981
565.0829	0.038488
568.0250	0.055307
570.9690	0.107787
573.9149	0.151236
576.8626	0.181180
579.8121	0.207346
582.7635	0.257675
585.7167	0.229757
588.6718	0.198315
591.6288	0.132645
594.5875	0.170249
597.5481	0.152629
600.5105	0.181138
603.4747	0.185864
606.4407	0.162061
609.4085	0.135262
612.3781	0.128636
615.3495	0.127982
618.3227	0.107956
621.2977	0.076999
624.2745	0.086158
627.2530	0.069571
630.2333	0.059147
633.2154	0.046634
636.1992	0.044903
639.1848	0.043257
642.1721	0.031379
645.1612	0.026120
648.1520	0.031300
651.1445	0.029380
654.1388	0.034708
657.1348	0.868035
660.1325	0.059426
663.1319	0.020621
666.1330	0.024433
669.1359	0.023780
672.1404	0.032854
675.1466	0.029794
678.1545	0.027452
681.1641	0.034205
684.1754	0.033930
687.1883	0.045220
690.2029	0.033508
693.2192	0.039797
696.2371	0.031292
699.2567	0.037581
702.2779	0.028739
705.3008	0.024181
708.3253	0.036526
711.3514	0.034162
714.3791	0.034352
717.4085	0.027853
720.4395	0.030301
723.4721	0.030301
726.5063	0.033360
729.5421	0.036547
732.5795	0.042308
735.6185	0.048364
738.6591	0.039754
741.7013	0.035428
744.7450	0.029921
747.7903	0.032812
750.8372	0.039944
753.8856	0.045051
756.9356	0.052078
759.9872	0.058641
763.0403	0.050432
766.0949	0.047499
769.1510	0.050031
772.2087	0.042413
775.2679	0.032200
778.3287	0.026840
781.3909	0.035492
784.4547	0.030364
787.5199	0.030385
790.5867	0.027684
793.6550	0.025257
796.7247	0.019834
799.7959	0.022366
802.8686	0.016753
805.9428	0.021269
809.0185	0.022261
812.0956	0.016922
815.1742	0.014854
818.2542	0.015276
821.3357	0.016226
824.4186	0.011942
827.5029	0.016521
830.5887	0.011013
833.6759	0.009621
836.7646	0.008650
839.8546	0.008502
842.9461	0.005232
846.0390	0.007447
849.1333	0.003987
852.2289	0.006856
855.3260	0.013271
858.4245	0.010802
861.5243	0.006751
864.6255	0.006856
867.7281	0.004366
870.8321	0.005295
873.9374	0.006097
877.0441	0.005970
880.1521	0.007447
883.2615	0.007363
886.3722	0.007511
889.4843	0.005063
892.5977	0.006519
895.7124	0.005569
898.8284	0.004662
901.9458	0.004831
905.0644	0.005569
908.1844	0.003670
911.3057	0.004999
914.4283	0.004683
917.5521	0.005464
920.6773	0.004746
923.8037	0.003121
926.9314	0.003733
930.0604	0.002383
933.1906	0.001623
936.3221	0.002847
939.4549	0.002657
942.5889	0.001159
945.7241	0.002024
948.8606	0.001961
951.9983	0.001496
955.1373	0.001349
958.2775	0.002509
961.4189	0.000336
964.5615	0.001623
967.7053	0.001897
970.8504	0.002277
973.9966	0.001729
977.1440	0.001117
980.2926	0.000969
983.4424	0.000378
986.5934	0.000441
989.7456	0.000800
992.8989	0.000674
996.0534	0.001285
999.2090	-0.000234
1002.37	0.002024
1005.52	0.001433
1008.68	0.001961
1011.84	0.000948
1015	0.000083
1018.17	0.000125
1021.33	0.000188
1023.03	0.000758

File: spectrum_2025-06-19_11-38-50.txt
# Wavelength (nm)	Intensity (a.u.)
197.7802	0.000498
200.4334	0.000688
203.0892	0.000772
205.7475	0.000941
208.4084	0.000751
211.0718	0.001743
213.7376	-0.000790
216.4060	0.001004
219.0769	0.000793
221.7503	-0.000114
224.4262	-0.000368
227.1046	0.001089
229.7855	-0.000347
232.4688	0.000730
235.1546	0.001110
237.8429	-0.000431
240.5337	0.000012
243.2269	0.001047
245.9225	0.000519
248.6206	-0.000558
251.3212	0.000033
254.0242	0.000899
256.7296	0.001828
259.4375	0.000688
262.1477	0.001722
264.8604	0.000561
267.5755	0.000983
270.2931	0.002081
273.0130	0.000498
275.7353	0.000793
278.4600	0.000667
281.1871	0.000392
283.9166	-0.000494
286.6484	0.000793
289.3827	0.000899
292.1193	0.001089
294.8582	0.000751
297.5995	-0.000389
300.3432	-0.000093
303.0892	-0.000938
305.8376	0.001954
308.5883	0.001068
311.3413	0.001363
314.0967	0.000076
316.8543	0.000751
319.6143	-0.000241
322.3766	-0.000093
325.1412	-0.000621
327.9082	0.001722
330.6774	-0.000135
333.4489	0.000287
336.2227	-0.000051
338.9987	-0.000009
341.7771	0.000181
344.5577	0.000751
347.3406	0.000540
350.1257	0.000793
352.9131	-0.000283
355.7027	0.001722
358.4946	-0.000220
361.2888	0.000709
364.0851	-0.000009
366.8837	0.001638
369.6845	-0.000135
372.4876	0.000582
375.2928	-0.000093
378.1003	-0.000241
380.9100	0.000012
383.7219	0.001173
386.5359	0.001131
389.3522	0.001237
392.1706	0.001975
394.9912	0.006176
397.8140	0.006725
400.6390	0.007548
403.4661	0.008920
406.2954	0.010314
409.1269	0.013184
411.9605	0.015127
414.7962	0.015950
417.6341	0.016456
420.4741	0.020573
423.3162	0.022979
426.1605	0.020552
429.0068	0.022578
431.8553	0.021248
434.7059	0.023655
437.5586	0.025238
440.4135	0.024668
443.2703	0.025428
446.1293	0.027961
448.9904	0.024837
451.8535	0.020108
454.7188	0.018040
457.5860	0.020045
460.4554	0.020214
463.3268	0.014177
466.2003	0.015760
469.0758	0.010694
471.9533	0.008667
474.8329	0.008562
477.7145	0.006999
480.5982	0.008350
483.4838	0.006535
486.3715	0.016963
489.2612	0.006113
492.1529	0.005564
495.0466	0.003833
497.9423	0.003812
500.8400	0.002482
503.7397	0.002714
506.6414	0.001701
509.5450	0.002989
512.4506	0.002292
515.3582	0.003812
518.2677	0.003390
521.1792	0.003263
524.0927	0.002968
527.0081	0.004910
529.9254	0.005142
532.8447	0.005311
535.7659	0.008097
538.6890	0.009913
541.6140	0.011179
544.5410	0.012973
547.4699	0.015612
550.4007	0.018546
553.3333	0.021713
556.2679	0.024710
559.2044	0.026652
562.1427	0.031908
565.0829	0.039782
568.0250	0.055846
570.9690	0.108345
573.9149	0.153033
576.8626	0.180264
579.8121	0.201437
582.7635	0.257862
585.7167	0.227338
588.6718	0.193310
591.6288	0.132135
594.5875	0.168443
597.5481	0.148875
600.5105	0.183557
603.4747	0.187336
606.4407	0.164242
609.4085	0.133676
612.3781	0.127681
615.3495	0.126837
618.3227	0.106445
621.2977	0.072797
624.2745	0.089072
627.2530	0.070412
630.2333	0.059709
633.2154	0.048163
636.1992	0.042906
639.1848	0.041281
642.1721	0.031468
645.1612	0.027333
648.1520	0.028009
651.1445	0.028957
654.1388	0.033710
657.1348	0.866216
660.1325	0.058569
663.1319	0.022747
666.1330	0.025988
669.1359	0.021797
672.1404	0.032204
675.1466	0.026821
678.1545	0.029607
681.1641	0.033597
684.1754	0.034843
687.1883	0.042885
690.2029	0.036004
693.2192	0.038452
696.2371	0.032352
699.2567	0.037523
702.2779	0.030283
705.3008	0.023190
708.3253	0.035961
711.3514	0.031022
714.3791	0.036088
717.4085	0.029460
720.4395	0.027665
723.4721	0.028468
726.5063	0.032943
729.5421	0.037967
732.5795	0.039698
735.6185	0.050316
738.6591	0.041133
741.7013	0.033597
744.7450	0.029291
747.7903	0.033555
750.8372	0.041978
753.8856	0.043181
756.9356	0.050442
759.9872	0.060216
763.0403	0.049872
766.0949	0.051709
769.1510	0.048986
772.2087	0.042041
775.2679	0.032267
778.3287	0.026230
781.3909	0.035054
784.4547	0.028151
787.5199	0.029249
790.5867	0.025090
793.6550	0.024119
796.7247	0.021016
799.7959	0.024985
802.8686	0.017913
805.9428	0.020129
809.0185	0.022430
812.0956	0.017829
815.1742	0.016689
818.2542	0.014092
821.3357	0.015675
824.4186	0.011707
827.5029	0.014620
830.5887	0.010715
833.6759	0.010461
836.7646	0.008646
839.8546	0.007401
842.9461	0.006430
846.0390	0.004382
849.1333	0.004656
852.2289	0.006598
855.3260	0.013564
858.4245	0.010567
861.5243	0.007738
864.6255	0.005986
867.7281	0.005902
870.8321	0.007063
873.9374	0.005374
877.0441	0.006303
880.1521	0.008477
883.2615	0.006092
886.3722	0.006598
889.4843	0.005691
892.5977	0.005902
895.7124	0.004635
898.8284	0.005247
901.9458	0.005480
905.0644	0.004783
908.1844	0.003685
911.3057	0.004825
914.4283	0.003348
917.5521	0.003664
920.6773	0.001891
923.8037	0.003305
926.9314	0.001004
930.0604	0.002799
933.1906	0.002883
936.3221	0.003136
939.4549	0.002271
942.5889	0.001258
945.7241	0.001933
948.8606	0.001110
951.9983	0.002081
955.1373	0.000561
958.2775	0.000730
961.4189	0.000540
964.5615	0.002018
967.7053	0.000709
970.8504	0.001764
973.9966	0.001363
977.1440	0.000962
980.2926	-0.000072
983.4424	0.001427
986.5934	0.000983
989.7456	-0.000347
992.8989	0.001406
996.0534	0.000751
999.2090	0.000223
1002.37	0.000772
1005.52	0.001258
1008.68	-0.001128
1011.84	0.000709
1015	-0.000135
1018.17	0.000181
1021.33	0.001659
1023.03	-0.000790