Folder: Auto_Polymerization/Auto_Polymerization/Spectra (part 2)

File: spectrum_2025-06-19_10-21-45.txt
# Wavelength (nm)	Intensity (a.u.)
197.7802	0.000237
200.4334	-0.000480
203.0892	0.000554
205.7475	0.000259
208.4084	0.000702
211.0718	0.001187
213.7376	0.000765
216.4060	-0.000881
219.0769	0.000069
221.7503	-0.000375
224.4262	0.001884
227.1046	-0.001113
229.7855	0.001652
232.4688	0.000533
235.1546	0.000301
237.8429	-0.000459
240.5337	0.001293
243.2269	-0.001303
245.9225	0.000364
248.6206	-0.000248
251.3212	0.000069
254.0242	-0.000016
256.7296	0.000681
259.4375	-0.001029
262.1477	0.000660
264.8604	0.000976
267.5755	0.000871
270.2931	0.000259
273.0130	-0.000016
275.7353	-0.000100
278.4600	0.000533
281.1871	-0.001536
283.9166	0.000322
286.6484	0.000850
289.3827	0.001588
292.1193	-0.000142
294.8582	0.000786
297.5995	0.000364
300.3432	0.001546
303.0892	0.000491
305.8376	0.000871
308.5883	0.000554
311.3413	0.000195
314.0967	0.000427
316.8543	0.000259
319.6143	0.001082
322.3766	-0.000607
325.1412	0.000280
327.9082	-0.000480
330.6774	0.000280
333.4489	0.001377
336.2227	-0.000565
338.9987	0.000913
341.7771	0.000997
344.5577	0.001778
347.3406	0.000195
350.1257	0.000660
352.9131	0.000005
355.7027	0.000301
358.4946	0.000280
361.2888	0.000554
364.0851	-0.000565
366.8837	0.000997
369.6845	-0.000248
372.4876	0.000554
375.2928	0.000807
378.1003	-0.000987
380.9100	0.000807
383.7219	0.001230
386.5359	-0.000142
389.3522	0.002116
392.1706	0.004375
394.9912	0.010433
397.8140	0.014296
400.6390	0.019151
403.4661	0.019953
406.2954	0.025357
409.1269	0.027088
411.9605	0.027045
414.7962	0.030254
417.6341	0.027172
420.4741	0.032111
423.3162	0.032006
426.1605	0.029874
429.0068	0.030402
431.8553	0.030296
434.7059	0.029874
437.5586	0.032027
440.4135	0.028291
443.2703	0.033631
446.1293	0.030000
448.9904	0.028058
451.8535	0.023858
454.7188	0.022591
457.5860	0.019932
460.4554	0.020438
463.3268	0.016385
466.2003	0.017926
469.0758	0.012058
471.9533	0.009821
474.8329	0.008976
477.7145	0.008681
480.5982	0.007224
483.4838	0.005430
486.3715	0.018095
489.2612	0.005325
492.1529	0.006085
495.0466	0.003193
497.9423	0.003910
500.8400	0.002475
503.7397	0.003277
506.6414	0.003953
509.5450	0.002855
512.4506	0.001610
515.3582	0.003150
518.2677	0.003003
521.1792	0.002454
524.0927	0.002665
527.0081	0.004311
529.9254	0.005599
532.8447	0.005008
535.7659	0.007351
538.6890	0.009715
541.6140	0.010285
544.5410	0.012670
547.4699	0.016449
550.4007	0.017926
553.3333	0.022085
556.2679	0.026475
559.2044	0.024829
562.1427	0.032745
565.0829	0.039626
568.0250	0.056618
570.9690	0.112239
573.9149	0.154752
576.8626	0.182404
579.8121	0.210141
582.7635	0.266817
585.7167	0.240558
588.6718	0.203618
591.6288	0.130435
594.5875	0.175586
597.5481	0.153316
600.5105	0.183945
603.4747	0.188694
606.4407	0.168029
609.4085	0.133707
612.3781	0.132356
615.3495	0.130836
618.3227	0.107870
621.2977	0.076946
624.2745	0.086086
627.2530	0.072175
630.2333	0.059996
633.2154	0.045156
636.1992	0.044418
639.1848	0.041209
642.1721	0.029757
645.1612	0.026763
648.1520	0.029692
651.1445	0.031334
654.1388	0.032785
657.1348	0.885218
660.1325	0.061320
663.1319	0.022276
666.1330	0.022725
669.1359	0.021388
672.1404	0.032470
675.1466	0.026243
678.1545	0.029663
681.1641	0.034687
684.1754	0.034982
687.1883	0.045199
690.2029	0.035446
693.2192	0.040048
696.2371	0.030634
699.2567	0.037684
702.2779	0.029198
705.3008	0.024175
708.3253	0.035995
711.3514	0.031119
714.3791	0.035869
717.4085	0.027341
720.4395	0.028396
723.4721	0.027531
726.5063	0.035552
729.5421	0.036333
732.5795	0.042011
735.6185	0.049378
738.6591	0.041230
741.7013	0.035573
744.7450	0.030781
747.7903	0.032280
750.8372	0.039985
753.8856	0.043383
756.9356	0.051025
759.9872	0.061178
763.0403	0.049167
766.0949	0.049568
769.1510	0.047225
772.2087	0.040956
775.2679	0.031605
778.3287	0.026095
781.3909	0.035067
784.4547	0.029958
787.5199	0.028924
790.5867	0.026623
793.6550	0.021620
796.7247	0.020713
799.7959	0.020354
802.8686	0.017483
805.9428	0.020079
809.0185	0.023436
812.0956	0.017462
815.1742	0.016428
818.2542	0.015668
821.3357	0.015794
824.4186	0.011763
827.5029	0.013916
830.5887	0.010454
833.6759	0.009694
836.7646	0.008385
839.8546	0.006148
842.9461	0.006253
846.0390	0.006422
849.1333	0.003488
852.2289	0.005726
855.3260	0.013071
858.4245	0.010517
861.5243	0.006950
864.6255	0.006739
867.7281	0.004691
870.8321	0.006971
873.9374	0.005979
877.0441	0.004248
880.1521	0.006971
883.2615	0.005683
886.3722	0.006992
889.4843	0.004185
892.5977	0.004058
895.7124	0.006021
898.8284	0.005008
901.9458	0.003699
905.0644	0.006021
908.1844	0.003235
911.3057	0.003741
914.4283	0.002496
917.5521	0.005092
920.6773	0.004016
923.8037	0.003847
926.9314	0.001610
930.0604	0.002095
933.1906	0.001736
936.3221	0.002264
939.4549	0.002475
942.5889	0.001335
945.7241	0.001546
948.8606	0.000047
951.9983	0.002876
955.1373	0.000892
958.2775	0.001018
961.4189	0.000807
964.5615	0.001293
967.7053	0.000533
970.8504	0.000195
973.9966	0.000892
977.1440	0.000343
980.2926	0.000871
983.4424	0.002602
986.5934	-0.000565
989.7456	0.000639
992.8989	0.000280
996.0534	-0.000311
999.2090	0.000026
1002.37	0.000575
1005.52	0.000575
1008.68	0.001483
1011.84	-0.000459
1015	-0.000818
1018.17	-0.000501
1021.33	0.000639
1023.03	0.000174

File: spectrum_2025-06-19_10-26-51.txt
# Wavelength (nm)	Intensity (a.u.)
197.7802	0.001335
200.4334	-0.001114
203.0892	0.000301
205.7475	-0.002887
208.4084	0.001758
211.0718	-0.000375
213.7376	-0.000966
216.4060	0.000660
219.0769	-0.000079
221.7503	0.000808
224.4262	0.000428
227.1046	-0.000164
229.7855	0.001525
232.4688	0.000639
235.1546	0.000491
237.8429	-0.000797
240.5337	0.000491
243.2269	0.000976
245.9225	-0.000417
248.6206	-0.000565
251.3212	-0.000037
254.0242	0.000153
256.7296	0.000343
259.4375	0.001821
262.1477	0.001314
264.8604	0.000850
267.5755	-0.000544
270.2931	-0.001473
273.0130	-0.000121
275.7353	0.000238
278.4600	0.000934
281.1871	0.000301
283.9166	0.000660
286.6484	-0.000438
289.3827	0.000280
292.1193	0.001251
294.8582	0.000005
297.5995	0.000132
300.3432	0.000765
303.0892	-0.000586
305.8376	-0.000185
308.5883	0.000428
311.3413	0.001188
314.0967	0.000618
316.8543	-0.000311
319.6143	0.000069
322.3766	-0.000121
325.1412	-0.000269
327.9082	0.001652
330.6774	-0.000565
333.4489	0.001293
336.2227	-0.000016
338.9987	0.000913
341.7771	0.000892
344.5577	0.000385
347.3406	-0.000523
350.1257	0.000153
352.9131	-0.000248
355.7027	-0.000206
358.4946	0.000090
361.2888	0.001525
364.0851	-0.000121
366.8837	-0.000227
369.6845	-0.000734
372.4876	0.000765
375.2928	-0.000523
378.1003	0.000660
380.9100	0.001736
383.7219	-0.000100
386.5359	-0.000628
389.3522	0.002116
392.1706	0.006318
394.9912	0.010793
397.8140	0.014340
400.6390	0.017359
403.4661	0.020019
406.2954	0.025973
409.1269	0.026479
411.9605	0.027852
414.7962	0.028358
417.6341	0.028358
420.4741	0.032137
423.3162	0.033594
426.1605	0.030490
429.0068	0.031799
431.8553	0.031799
434.7059	0.031483
437.5586	0.030322
440.4135	0.027999
443.2703	0.033467
446.1293	0.030617
448.9904	0.027450
451.8535	0.025804
454.7188	0.022341
457.5860	0.021032
460.4554	0.019597
463.3268	0.017085
466.2003	0.017570
469.0758	0.012926
471.9533	0.010540
474.8329	0.009252
477.7145	0.008640
480.5982	0.006909
483.4838	0.006339
486.3715	0.015142
489.2612	0.004777
492.1529	0.005072
495.0466	0.003256
497.9423	0.003974
500.8400	0.003341
503.7397	0.003679
506.6414	0.002243
509.5450	0.002834
512.4506	0.001715
515.3582	0.001884
518.2677	0.003003
521.1792	0.002349
524.0927	0.005157
527.0081	0.003658
529.9254	0.006951
532.8447	0.006212
535.7659	0.006128
538.6890	0.009273
541.6140	0.013073
544.5410	0.014488
547.4699	0.018837
550.4007	0.017380
553.3333	0.022743
556.2679	0.026965
559.2044	0.023566
562.1427	0.037204
565.0829	0.040856
568.0250	0.057724
570.9690	0.116077
573.9149	0.156822
576.8626	0.184901
579.8121	0.208715
582.7635	0.265737
585.7167	0.237279
588.6718	0.198645
591.6288	0.135795
594.5875	0.173290
597.5481	0.154669
600.5105	0.185745
603.4747	0.191171
606.4407	0.165309
609.4085	0.133937
612.3781	0.131657
615.3495	0.131066
618.3227	0.110525
621.2977	0.073326
624.2745	0.090110
627.2530	0.072482
630.2333	0.060068
633.2154	0.046430
636.1992	0.042820
639.1848	0.042946
642.1721	0.032018
645.1612	0.026700
648.1520	0.028071
651.1445	0.029507
654.1388	0.033238
657.1348	0.876039
660.1325	0.061053
663.1319	0.021543
666.1330	0.024010
669.1359	0.022109
672.1404	0.033066
675.1466	0.028696
678.1545	0.028274
681.1641	0.034945
684.1754	0.031863
687.1883	0.046050
690.2029	0.034839
693.2192	0.039906
696.2371	0.028189
699.2567	0.036887
702.2779	0.030153
705.3008	0.022067
708.3253	0.038238
711.3514	0.033066
714.3791	0.035599
717.4085	0.027915
720.4395	0.027450
723.4721	0.029287
726.5063	0.033974
729.5421	0.035621
732.5795	0.042102
735.6185	0.047718
738.6591	0.040920
741.7013	0.037120
744.7450	0.029604
747.7903	0.031736
750.8372	0.039357
753.8856	0.044931
756.9356	0.050314
759.9872	0.058294
763.0403	0.047253
766.0949	0.052257
769.1510	0.049259
772.2087	0.039294
775.2679	0.031250
778.3287	0.025951
781.3909	0.037141
784.4547	0.030955
787.5199	0.027556
790.5867	0.023883
793.6550	0.022869
796.7247	0.021075
799.7959	0.020589
802.8686	0.015945
805.9428	0.021075
809.0185	0.022215
812.0956	0.017549
815.1742	0.016050
818.2542	0.013665
821.3357	0.015016
824.4186	0.011596
827.5029	0.014192
830.5887	0.009527
833.6759	0.009780
836.7646	0.008450
839.8546	0.007183
842.9461	0.005558
846.0390	0.007605
849.1333	0.004903
852.2289	0.005980
855.3260	0.013728
858.4245	0.012292
861.5243	0.007500
864.6255	0.007099
867.7281	0.005135
870.8321	0.005452
873.9374	0.004840
877.0441	0.005600
880.1521	0.008640
883.2615	0.006655
886.3722	0.007458
889.4843	0.004523
892.5977	0.004629
895.7124	0.003869
898.8284	0.004608
901.9458	0.003383
905.0644	0.004819
908.1844	0.003193
911.3057	0.003341
914.4283	0.003383
917.5521	0.003679
920.6773	0.005030
923.8037	0.004882
926.9314	0.001504
930.0604	0.001884
933.1906	0.000744
936.3221	0.001462
939.4549	0.002243
942.5889	-0.000670
945.7241	0.000913
948.8606	0.001103
951.9983	0.001061
955.1373	0.001884
958.2775	0.001525
961.4189	0.002053
964.5615	0.001926
967.7053	-0.000100
970.8504	-0.000016
973.9966	0.000850
977.1440	0.000322
980.2926	-0.000860
983.4424	0.000195
986.5934	0.000005
989.7456	-0.000691
992.8989	0.000660
996.0534	0.001019
999.2090	-0.000121
1002.37	0.001061
1005.52	-0.000037
1008.68	-0.001093
1011.84	0.001483
1015	0.000069
1018.17	0.001420
1021.33	0.000575
1023.03	0.000132

File: spectrum_2025-06-19_10-37-05.txt
# Wavelength (nm)	Intensity (a.u.)
197.7802	0.000288
200.4334	-0.000894
203.0892	0.000647
205.7475	0.000267
208.4084	0.000795
211.0718	-0.000767
213.7376	-0.000239
216.4060	0.000774
219.0769	0.000162
221.7503	0.000056
224.4262	0.001618
227.1046	0.000584
229.7855	0.000584
232.4688	0.000500
235.1546	0.000816
237.8429	0.000099
240.5337	-0.000007
243.2269	-0.000218
245.9225	0.000563
248.6206	-0.000915
251.3212	0.001006
254.0242	-0.000345
256.7296	-0.000598
259.4375	-0.000007
262.1477	0.000985
264.8604	0.000288
267.5755	-0.000070
270.2931	-0.000197
273.0130	0.000394
275.7353	-0.000197
278.4600	-0.000324
281.1871	-0.000661
283.9166	0.000880
286.6484	0.000415
289.3827	0.001281
292.1193	0.000816
294.8582	0.000331
297.5995	0.001576
300.3432	0.000352
303.0892	-0.000197
305.8376	0.002167
308.5883	0.000858
311.3413	0.000183
314.0967	-0.001231
316.8543	0.000331
319.6143	-0.000493
322.3766	0.000985
325.1412	-0.000007
327.9082	-0.000324
330.6774	0.000141
333.4489	-0.000957
336.2227	0.001281
338.9987	0.000837
341.7771	0.000542
344.5577	0.000310
347.3406	0.000457
350.1257	-0.000556
352.9131	0.000500
355.7027	0.001450
358.4946	-0.000155
361.2888	0.000436
364.0851	0.000837
366.8837	-0.000471
369.6845	0.000922
372.4876	0.000352
375.2928	0.000331
378.1003	-0.000704
380.9100	0.001323
383.7219	0.001618
386.5359	0.001471
389.3522	0.002062
392.1706	0.005587
394.9912	0.009070
397.8140	0.013946
400.6390	0.017493
403.4661	0.020364
406.2954	0.024839
409.1269	0.025705
411.9605	0.028871
414.7962	0.030011
417.6341	0.028449
420.4741	0.032185
423.3162	0.034972
426.1605	0.030222
429.0068	0.031087
431.8553	0.030475
434.7059	0.030813
437.5586	0.030222
440.4135	0.027393
443.2703	0.031700
446.1293	0.032840
448.9904	0.028027
451.8535	0.024881
454.7188	0.020068
457.5860	0.021504
460.4554	0.018063
463.3268	0.015509
466.2003	0.017620
469.0758	0.013018
471.9533	0.010717
474.8329	0.011012
477.7145	0.008732
480.5982	0.008205
483.4838	0.007065
486.3715	0.017535
489.2612	0.004806
492.1529	0.003159
495.0466	0.003940
497.9423	0.004194
500.8400	0.003075
503.7397	0.002505
506.6414	0.004088
509.5450	0.004743
512.4506	0.003286
515.3582	0.002843
518.2677	-0.000239
521.1792	0.003729
524.0927	0.003814
527.0081	0.003645
529.9254	0.005798
532.8447	0.004637
535.7659	0.009112
538.6890	0.010801
541.6140	0.012131
544.5410	0.013630
547.4699	0.016290
550.4007	0.018443
553.3333	0.021968
556.2679	0.024375
559.2044	0.024818
562.1427	0.034212
565.0829	0.038223
568.0250	0.057263
570.9690	0.112212
573.9149	0.155867
576.8626	0.186898
579.8121	0.209084
582.7635	0.265574
585.7167	0.239292
588.6718	0.201548
591.6288	0.134419
594.5875	0.174929
597.5481	0.155043
600.5105	0.189157
603.4747	0.194645
606.4407	0.169166
609.4085	0.132055
612.3781	0.132878
615.3495	0.130472
618.3227	0.109932
621.2977	0.075354
624.2745	0.089941
627.2530	0.071238
630.2333	0.062900
633.2154	0.045759
636.1992	0.044049
639.1848	0.041769
642.1721	0.030193
645.1612	0.025339
648.1520	0.029878
651.1445	0.028405
654.1388	0.032092
657.1348	0.869676
660.1325	0.063349
663.1319	0.022581
666.1330	0.022945
669.1359	0.021989
672.1404	0.030349
675.1466	0.026042
678.1545	0.027710
681.1641	0.030982
684.1754	0.032439
687.1883	0.045252
690.2029	0.036259
693.2192	0.039215
696.2371	0.029758
699.2567	0.036323
702.2779	0.029948
705.3008	0.023995
708.3253	0.034803
711.3514	0.031362
714.3791	0.033410
717.4085	0.027626
720.4395	0.028913
723.4721	0.029272
726.5063	0.032481
729.5421	0.036829
732.5795	0.043943
735.6185	0.049601
738.6591	0.041980
741.7013	0.033600
744.7450	0.029990
747.7903	0.030708
750.8372	0.039278
753.8856	0.042592
756.9356	0.051859
759.9872	0.060641
763.0403	0.047891
766.0949	0.048735
769.1510	0.049917
772.2087	0.042255
775.2679	0.032460
778.3287	0.025177
781.3909	0.035373
784.4547	0.031256
787.5199	0.030032
790.5867	0.026422
793.6550	0.024501
796.7247	0.020089
799.7959	0.022031
802.8686	0.016501
805.9428	0.019266
809.0185	0.021884
812.0956	0.016290
815.1742	0.015530
818.2542	0.015509
821.3357	0.015319
824.4186	0.009070
827.5029	0.012891
830.5887	0.008458
833.6759	0.009345
836.7646	0.007635
839.8546	0.008669
842.9461	0.005566
846.0390	0.005967
849.1333	0.005376
852.2289	0.006051
855.3260	0.012427
858.4245	0.009028
861.5243	0.006558
864.6255	0.006453
867.7281	0.004912
870.8321	0.006073
873.9374	0.003624
877.0441	0.005144
880.1521	0.008669
883.2615	0.007128
886.3722	0.008120
889.4843	0.004954
892.5977	0.003940
895.7124	0.004700
898.8284	0.005671
901.9458	0.004194
905.0644	0.004722
908.1844	0.002336
911.3057	0.004363
914.4283	0.001618
917.5521	0.003708
920.6773	0.004553
923.8037	0.003265
926.9314	0.002611
930.0604	0.003096
933.1906	0.003835
936.3221	0.002357
939.4549	0.002188
942.5889	0.000563
945.7241	0.001154
948.8606	0.001154
951.9983	0.000795
955.1373	0.000415
958.2775	0.002357
961.4189	0.002357
964.5615	0.000394
967.7053	0.000310
970.8504	0.001450
973.9966	0.000605
977.1440	0.001048
980.2926	0.000647
983.4424	0.002083
986.5934	-0.000239
989.7456	0.000711
992.8989	0.000373
996.0534	0.001281
999.2090	-0.001400
1002.37	0.000922
1005.52	0.001070
1008.68	-0.000661
1011.84	0.000647
1015	-0.000619
1018.17	0.001112
1021.33	0.000858
1023.03	-0.000598

File: spectrum_2025-06-19_10-42-12.txt
# Wavelength (nm)	Intensity (a.u.)
197.7802	0.000579
200.4334	-0.000561
203.0892	-0.000118
205.7475	0.000114
208.4084	0.000135
211.0718	0.000114
213.7376	0.000536
216.4060	0.000748
219.0769	0.001444
221.7503	0.000832
224.4262	0.000135
227.1046	0.001845
229.7855	0.001360
232.4688	0.001465
235.1546	0.000389
237.8429	0.000600
240.5337	0.001360
243.2269	0.001001
245.9225	0.000304
248.6206	-0.001131
251.3212	0.000515
254.0242	0.000494
256.7296	0.000473
259.4375	0.001170
262.1477	0.000030
264.8604	0.000663
267.5755	-0.000751
270.2931	0.000705
273.0130	-0.000456
275.7353	0.001718
278.4600	0.001149
281.1871	-0.000582
283.9166	0.000853
286.6484	-0.000920
289.3827	-0.000012
292.1193	0.001486
294.8582	0.001127
297.5995	0.000515
300.3432	-0.001131
303.0892	0.000515
305.8376	0.001127
308.5883	0.001149
311.3413	-0.000540
314.0967	-0.000392
316.8543	-0.000033
319.6143	-0.001448
322.3766	0.001191
325.1412	0.000536
327.9082	-0.000371
330.6774	-0.000899
333.4489	0.000705
336.2227	0.000072
338.9987	0.001571
341.7771	0.001444
344.5577	0.000748
347.3406	-0.000456
350.1257	0.000600
352.9131	0.000241
355.7027	0.001317
358.4946	-0.000202
361.2888	-0.000055
364.0851	0.001824
366.8837	0.000600
369.6845	0.001212
372.4876	0.000325
375.2928	0.000790
378.1003	0.001254
380.9100	-0.001426
383.7219	0.000410
386.5359	0.000452
389.3522	0.003491
392.1706	0.005940
394.9912	0.010224
397.8140	0.015437
400.6390	0.019659
403.4661	0.020693
406.2954	0.027194
409.1269	0.025801
411.9605	0.028692
414.7962	0.030043
417.6341	0.029283
420.4741	0.033314
423.3162	0.034264
426.1605	0.030233
429.0068	0.031288
431.8553	0.032344
434.7059	0.030212
437.5586	0.031753
440.4135	0.030571
443.2703	0.034285
446.1293	0.031563
448.9904	0.028122
451.8535	0.025526
454.7188	0.022719
457.5860	0.019068
460.4554	0.020482
463.3268	0.017189
466.2003	0.018962
469.0758	0.013074
471.9533	0.009865
474.8329	0.009000
477.7145	0.007459
480.5982	0.007755
483.4838	0.007924
486.3715	0.016366
489.2612	0.006277
492.1529	0.004568
495.0466	0.004927
497.9423	0.002943
500.8400	0.003892
503.7397	0.005095
506.6414	0.003280
509.5450	0.002689
512.4506	0.003555
515.3582	0.004969
518.2677	0.004082
521.1792	0.003681
524.0927	0.003428
527.0081	0.003660
529.9254	0.003913
532.8447	0.005982
535.7659	0.008747
538.6890	0.010013
541.6140	0.011512
544.5410	0.013918
547.4699	0.016704
550.4007	0.018962
553.3333	0.024872
556.2679	0.027447
559.2044	0.027088
562.1427	0.035763
565.0829	0.040174
568.0250	0.058114
570.9690	0.114215
573.9149	0.157883
576.8626	0.180340
579.8121	0.208074
582.7635	0.268438
585.7167	0.237200
588.6718	0.199146
591.6288	0.133780
594.5875	0.174874
597.5481	0.153198
600.5105	0.184773
603.4747	0.190767
606.4407	0.166495
609.4085	0.136102
612.3781	0.131205
615.3495	0.131690
618.3227	0.114003
621.2977	0.078144
624.2745	0.087874
627.2530	0.071685
630.2333	0.061280
633.2154	0.046970
636.1992	0.044627
639.1848	0.042812
642.1721	0.033482
645.1612	0.029612
648.1520	0.030658
651.1445	0.029056
654.1388	0.034384
657.1348	0.871618
660.1325	0.061359
663.1319	0.022362
666.1330	0.023188
669.1359	0.022804
672.1404	0.034750
675.1466	0.026096
678.1545	0.029093
681.1641	0.033884
684.1754	0.033547
687.1883	0.044163
690.2029	0.033884
693.2192	0.040680
696.2371	0.030676
699.2567	0.036818
702.2779	0.028354
705.3008	0.026518
708.3253	0.040870
711.3514	0.032491
714.3791	0.036206
717.4085	0.029557
720.4395	0.027616
723.4721	0.028565
726.5063	0.033715
729.5421	0.036396
732.5795	0.043656
735.6185	0.050052
738.6591	0.040934
741.7013	0.034095
744.7450	0.029473
747.7903	0.031520
750.8372	0.040617
753.8856	0.041356
756.9356	0.051276
759.9872	0.060520
763.0403	0.050157
766.0949	0.051044
769.1510	0.048342
772.2087	0.041989
775.2679	0.030887
778.3287	0.027004
781.3909	0.035404
784.4547	0.030296
787.5199	0.031457
790.5867	0.026054
793.6550	0.024935
796.7247	0.021516
799.7959	0.021410
802.8686	0.016704
805.9428	0.020756
809.0185	0.022297
812.0956	0.017210
815.1742	0.017210
818.2542	0.012820
821.3357	0.015480
824.4186	0.011554
827.5029	0.014530
830.5887	0.010942
833.6759	0.012229
836.7646	0.008092
839.8546	0.008156
842.9461	0.005011
846.0390	0.006932
849.1333	0.005560
852.2289	0.006320
855.3260	0.015374
858.4245	0.010203
861.5243	0.005475
864.6255	0.006003
867.7281	0.004948
870.8321	0.006763
873.9374	0.005159
877.0441	0.004040
880.1521	0.009127
883.2615	0.005813
886.3722	0.007903
889.4843	0.006130
892.5977	0.004863
895.7124	0.004251
898.8284	0.005686
901.9458	0.004694
905.0644	0.006024
908.1844	0.005285
911.3057	0.004188
914.4283	0.003597
917.5521	0.005707
920.6773	0.003766
923.8037	0.005095
926.9314	0.002246
930.0604	0.003154
933.1906	0.002288
936.3221	0.002710
939.4549	0.001972
942.5889	0.001191
945.7241	0.000811
948.8606	0.001043
951.9983	0.000072
955.1373	0.000642
958.2775	0.002119
961.4189	0.000558
964.5615	0.001338
967.7053	0.001212
970.8504	0.000114
973.9966	0.000642
977.1440	0.000748
980.2926	-0.000118
983.4424	0.001592
986.5934	-0.000456
989.7456	0.000157
992.8989	0.001191
996.0534	0.000684
999.2090	-0.000835
1002.37	0.000832
1005.52	0.000937
1008.68	0.001043
1011.84	0.001043
1015	0.000621
1018.17	0.002014
1021.33	0.001697
1023.03	-0.000941

File: spectrum_2025-06-19_10-47-19.txt
# Wavelength (nm)	Intensity (a.u.)
197.7802	0.000547
200.4334	0.000652
203.0892	0.002256
205.7475	-0.000529
208.4084	0.001454
211.0718	0.000315
213.7376	0.000040
216.4060	0.000589
219.0769	0.001180
221.7503	0.000505
224.4262	0.000188
227.1046	0.000294
229.7855	0.000737
232.4688	0.000315
235.1546	0.001834
237.8429	0.001982
240.5337	0.001307
243.2269	0.000737
245.9225	0.000040
248.6206	0.000463
251.3212	0.000568
254.0242	0.000547
256.7296	0.001940
259.4375	0.001011
262.1477	0.000589
264.8604	-0.000276
267.5755	0.001328
270.2931	-0.000888
273.0130	0.000484
275.7353	-0.000403
278.4600	0.001391
281.1871	-0.001057
283.9166	0.000927
286.6484	-0.000318
289.3827	0.001644
292.1193	0.001771
294.8582	-0.000677
297.5995	-0.000171
300.3432	0.001644
303.0892	0.000906
305.8376	0.001011
308.5883	-0.000361
311.3413	0.000547
314.0967	0.000251
316.8543	-0.000361
319.6143	0.001011
322.3766	0.000167
325.1412	-0.000318
327.9082	0.001497
330.6774	0.000589
333.4489	-0.000171
336.2227	0.002763
338.9987	0.001729
341.7771	0.000969
344.5577	0.000441
347.3406	0.000441
350.1257	0.001602
352.9131	0.000631
355.7027	0.001433
358.4946	0.001075
361.2888	0.001560
364.0851	0.001011
366.8837	0.002700
369.6845	0.000547
372.4876	0.000568
375.2928	0.000652
378.1003	-0.000002
380.9100	0.000864
383.7219	0.001581
386.5359	0.000378
389.3522	0.002636
392.1706	0.006287
394.9912	0.008567
397.8140	0.013505
400.6390	0.018950
403.4661	0.021525
406.2954	0.026759
409.1269	0.026991
411.9605	0.026379
414.7962	0.028869
417.6341	0.029692
420.4741	0.030009
423.3162	0.033386
426.1605	0.030009
429.0068	0.029798
431.8553	0.031972
434.7059	0.031655
437.5586	0.030262
440.4135	0.030178
443.2703	0.033871
446.1293	0.031571
448.9904	0.027413
451.8535	0.025345
454.7188	0.021989
457.5860	0.021398
460.4554	0.020976
463.3268	0.016059
466.2003	0.017346
469.0758	0.012682
471.9533	0.010804
474.8329	0.009538
477.7145	0.008736
480.5982	0.008419
483.4838	0.006836
486.3715	0.017452
489.2612	0.005549
492.1529	0.004325
495.0466	0.005211
497.9423	0.003185
500.8400	0.003037
503.7397	0.003248
506.6414	0.002383
509.5450	0.004325
512.4506	0.002763
515.3582	0.004304
518.2677	0.002742
521.1792	0.004599
524.0927	0.004515
527.0081	0.005021
529.9254	0.005781
532.8447	0.006435
535.7659	0.009601
538.6890	0.009073
541.6140	0.010276
544.5410	0.014877
547.4699	0.015911
550.4007	0.018127
553.3333	0.022348
556.2679	0.025957
559.2044	0.027287
562.1427	0.033175
565.0829	0.039633
568.0250	0.058057
570.9690	0.112824
573.9149	0.157544
576.8626	0.186057
579.8121	0.210792
582.7635	0.265875
585.7167	0.236919
588.6718	0.200872
591.6288	0.132472
594.5875	0.171642
597.5481	0.155835
600.5105	0.185930
603.4747	0.190341
606.4407	0.168202
609.4085	0.135279
612.3781	0.129623
615.3495	0.127808
618.3227	0.110502
621.2977	0.073632
624.2745	0.089060
627.2530	0.069433
630.2333	0.062426
633.2154	0.043453
636.1992	0.043727
639.1848	0.041216
642.1721	0.032426
645.1612	0.027401
648.1520	0.030096
651.1445	0.028063
654.1388	0.031876
657.1348	0.883276
660.1325	0.061514
663.1319	0.020750
666.1330	0.023260
669.1359	0.020892
672.1404	0.031634
675.1466	0.025957
678.1545	0.030157
681.1641	0.034272
684.1754	0.033470
687.1883	0.044571
690.2029	0.035855
693.2192	0.037776
696.2371	0.029946
699.2567	0.036974
702.2779	0.029228
705.3008	0.025134
708.3253	0.037121
711.3514	0.033154
714.3791	0.035201
717.4085	0.027498
720.4395	0.028701
723.4721	0.027941
726.5063	0.032542
729.5421	0.037417
732.5795	0.042081
735.6185	0.046555
738.6591	0.042334
741.7013	0.035412
744.7450	0.031951
747.7903	0.030537
750.8372	0.042292
753.8856	0.043896
756.9356	0.052380
759.9872	0.061835
763.0403	0.049425
766.0949	0.049615
769.1510	0.049974
772.2087	0.041659
775.2679	0.030579
778.3287	0.026020
781.3909	0.035813
784.4547	0.032689
787.5199	0.031782
790.5867	0.023846
793.6550	0.022855
796.7247	0.023572
799.7959	0.023762
802.8686	0.016966
805.9428	0.019541
809.0185	0.022200
812.0956	0.017515
815.1742	0.015341
818.2542	0.014919
821.3357	0.015109
824.4186	0.010107
827.5029	0.014476
830.5887	0.010846
833.6759	0.010677
836.7646	0.007533
839.8546	0.007490
842.9461	0.005992
846.0390	0.005190
849.1333	0.004029
852.2289	0.006013
855.3260	0.012872
858.4245	0.010656
861.5243	0.007089
864.6255	0.007997
867.7281	0.006119
870.8321	0.005781
873.9374	0.005021
877.0441	0.005950
880.1521	0.006794
883.2615	0.007469
886.3722	0.007427
889.4843	0.004472
892.5977	0.005359
895.7124	0.003269
898.8284	0.004662
901.9458	0.004071
905.0644	0.004325
908.1844	0.003776
911.3057	0.004873
914.4283	0.003101
917.5521	0.004409
920.6773	0.004472
923.8037	0.002172
926.9314	0.003797
930.0604	0.003523
933.1906	0.001666
936.3221	0.000927
939.4549	0.001771
942.5889	-0.000023
945.7241	0.003016
948.8606	0.000652
951.9983	0.001729
955.1373	0.000399
958.2775	0.001096
961.4189	0.001328
964.5615	0.001075
967.7053	0.000399
970.8504	0.000209
973.9966	0.000463
977.1440	0.002193
980.2926	0.002003
983.4424	0.000695
986.5934	0.000990
989.7456	0.001560
992.8989	0.000631
996.0534	0.000505
999.2090	0.001180
1002.37	0.002594
1005.52	0.000568
1008.68	0.000019
1011.84	0.002024
1015	-0.000424
1018.17	0.002256
1021.33	0.001560
1023.03	0.001138