Folder: Auto_Polymerization/Auto_Polymerization/Spectra (part 4)

File: spectrum_2025-06-19_11-49-04.txt
# Wavelength (nm)	Intensity (a.u.)
197.7802	-0.000025
200.4334	0.000208
203.0892	-0.000172
205.7475	0.001031
208.4084	-0.000383
211.0718	-0.000130
213.7376	0.000967
216.4060	0.000376
219.0769	0.000609
221.7503	0.000313
224.4262	0.001052
227.1046	-0.000299
229.7855	0.001432
232.4688	-0.000362
235.1546	0.000102
237.8429	0.001981
240.5337	0.000904
243.2269	0.000609
245.9225	-0.000890
248.6206	0.000841
251.3212	0.000081
254.0242	0.000165
256.7296	0.000588
259.4375	0.000334
262.1477	0.000925
264.8604	0.000271
267.5755	0.001305
270.2931	0.000841
273.0130	-0.000341
275.7353	0.001495
278.4600	0.000398
281.1871	-0.000848
283.9166	0.000609
286.6484	0.000376
289.3827	0.001537
292.1193	0.001115
294.8582	0.000735
297.5995	-0.000806
300.3432	-0.000109
303.0892	-0.000278
305.8376	0.000419
308.5883	0.000208
311.3413	0.000208
314.0967	0.000461
316.8543	0.001622
319.6143	-0.000405
322.3766	0.000967
325.1412	-0.001207
327.9082	0.001157
330.6774	-0.000067
333.4489	0.001770
336.2227	0.001770
338.9987	0.001411
341.7771	-0.000341
344.5577	0.000524
347.3406	-0.000299
350.1257	0.001390
352.9131	-0.000848
355.7027	0.000989
358.4946	-0.000405
361.2888	0.000925
364.0851	0.001052
366.8837	0.001558
369.6845	0.000229
372.4876	0.000693
375.2928	0.000904
378.1003	0.001010
380.9100	0.000524
383.7219	0.000735
386.5359	-0.000172
389.3522	0.001073
392.1706	0.001791
394.9912	0.002635
397.8140	0.005062
400.6390	0.007638
403.4661	0.006899
406.2954	0.010234
409.1269	0.012450
411.9605	0.012408
414.7962	0.015764
417.6341	0.016524
420.4741	0.018867
423.3162	0.022815
426.1605	0.019289
429.0068	0.020746
431.8553	0.022709
434.7059	0.021675
437.5586	0.022012
440.4135	0.020577
443.2703	0.024841
446.1293	0.024968
448.9904	0.023574
451.8535	0.021970
454.7188	0.020049
457.5860	0.018297
460.4554	0.018931
463.3268	0.016376
466.2003	0.014751
469.0758	0.009664
471.9533	0.008778
474.8329	0.007363
477.7145	0.006814
480.5982	0.007532
483.4838	0.006202
486.3715	0.017390
489.2612	0.006055
492.1529	0.004514
495.0466	0.003226
497.9423	0.004640
500.8400	0.004155
503.7397	0.004197
506.6414	0.001664
509.5450	0.002508
512.4506	0.003796
515.3582	0.004429
518.2677	0.003332
521.1792	0.004007
524.0927	0.003923
527.0081	0.005126
529.9254	0.006878
532.8447	0.007321
535.7659	0.008609
538.6890	0.009685
541.6140	0.011268
544.5410	0.012324
547.4699	0.017875
550.4007	0.019247
553.3333	0.022920
556.2679	0.027015
559.2044	0.023469
562.1427	0.033474
565.0829	0.038983
568.0250	0.055511
570.9690	0.109253
573.9149	0.149570
576.8626	0.175237
579.8121	0.204134
582.7635	0.254435
585.7167	0.230034
588.6718	0.194129
591.6288	0.129791
594.5875	0.167406
597.5481	0.149401
600.5105	0.179206
603.4747	0.185200
606.4407	0.163670
609.4085	0.133781
612.3781	0.130002
615.3495	0.129095
618.3227	0.110203
621.2977	0.075817
624.2745	0.085337
627.2530	0.072377
630.2333	0.059268
633.2154	0.045928
636.1992	0.044387
639.1848	0.041474
642.1721	0.029812
645.1612	0.027068
648.1520	0.031571
651.1445	0.027768
654.1388	0.033607
657.1348	0.858687
660.1325	0.060588
663.1319	0.023425
666.1330	0.023430
669.1359	0.022878
672.1404	0.031490
675.1466	0.027733
678.1545	0.028556
681.1641	0.032250
684.1754	0.035501
687.1883	0.045590
690.2029	0.036070
693.2192	0.041727
696.2371	0.028493
699.2567	0.036070
702.2779	0.030941
705.3008	0.023532
708.3253	0.039997
711.3514	0.031574
714.3791	0.037464
717.4085	0.026741
720.4395	0.028450
723.4721	0.029421
726.5063	0.034044
729.5421	0.037801
732.5795	0.040377
735.6185	0.047828
738.6591	0.039807
741.7013	0.034382
744.7450	0.030709
747.7903	0.031997
750.8372	0.039321
753.8856	0.040588
756.9356	0.053105
759.9872	0.060915
763.0403	0.048947
766.0949	0.049960
769.1510	0.048989
772.2087	0.041749
775.2679	0.031448
778.3287	0.027121
781.3909	0.036113
784.4547	0.032060
787.5199	0.030413
790.5867	0.025390
793.6550	0.023638
796.7247	0.021970
799.7959	0.020176
802.8686	0.018213
805.9428	0.021105
809.0185	0.024545
812.0956	0.016250
815.1742	0.018994
818.2542	0.014160
821.3357	0.017622
824.4186	0.010255
827.5029	0.015722
830.5887	0.010424
833.6759	0.010002
836.7646	0.008904
839.8546	0.007975
842.9461	0.006055
846.0390	0.006308
849.1333	0.005801
852.2289	0.006899
855.3260	0.013632
858.4245	0.009833
861.5243	0.004872
864.6255	0.006561
867.7281	0.003690
870.8321	0.006055
873.9374	0.004725
877.0441	0.006350
880.1521	0.007469
883.2615	0.007173
886.3722	0.006477
889.4843	0.004155
892.5977	0.005865
895.7124	0.004640
898.8284	0.006055
901.9458	0.004493
905.0644	0.005105
908.1844	0.003965
911.3057	0.004830
914.4283	0.004471
917.5521	0.004028
920.6773	0.003627
923.8037	0.002931
926.9314	0.003754
930.0604	0.002002
933.1906	0.002192
936.3221	0.002783
939.4549	0.003775
942.5889	0.002361
945.7241	0.002276
948.8606	0.001347
951.9983	0.001263
955.1373	0.002825
958.2775	0.002656
961.4189	0.001474
964.5615	0.000060
967.7053	0.000018
970.8504	-0.000215
973.9966	0.001580
977.1440	0.001200
980.2926	0.001073
983.4424	0.000419
986.5934	0.000693
989.7456	0.001094
992.8989	0.001305
996.0534	0.001537
999.2090	-0.000320
1002.37	0.000799
1005.52	0.000482
1008.68	-0.000257
1011.84	-0.000848
1015	-0.000299
1018.17	0.001812
1021.33	0.000334
1023.03	-0.000067

File: spectrum_2025-06-19_12-04-25.txt
# Wavelength (nm)	Intensity (a.u.)
197.7802	-0.000616
200.4334	-0.000975
203.0892	0.000208
205.7475	-0.000236
208.4084	0.001643
211.0718	-0.001355
213.7376	0.000651
216.4060	0.000208
219.0769	0.000545
221.7503	-0.000426
224.4262	0.000968
227.1046	-0.000215
229.7855	0.000503
232.4688	-0.001249
235.1546	0.000609
237.8429	-0.000088
240.5337	0.001306
243.2269	0.000503
245.9225	0.001179
248.6206	0.000208
251.3212	0.000292
254.0242	0.000735
256.7296	-0.000257
259.4375	-0.000384
262.1477	0.000503
264.8604	-0.000088
267.5755	0.000419
270.2931	0.000735
273.0130	0.000524
275.7353	-0.000194
278.4600	0.000757
281.1871	0.001876
283.9166	-0.000046
286.6484	-0.000130
289.3827	0.000545
292.1193	0.001010
294.8582	0.000313
297.5995	-0.000764
300.3432	0.001158
303.0892	-0.000510
305.8376	0.001517
308.5883	-0.000468
311.3413	0.000018
314.0967	-0.000933
316.8543	0.000567
319.6143	0.001686
322.3766	0.001517
325.1412	-0.001819
327.9082	0.000271
330.6774	0.000039
333.4489	0.001939
336.2227	0.000588
338.9987	-0.001123
341.7771	-0.000299
344.5577	0.000545
347.3406	-0.000088
350.1257	0.001897
352.9131	0.001158
355.7027	0.000334
358.4946	0.000968
361.2888	0.000567
364.0851	0.000883
366.8837	0.000947
369.6845	0.001263
372.4876	-0.000447
375.2928	0.000989
378.1003	0.000461
380.9100	0.000714
383.7219	0.000060
386.5359	-0.000130
389.3522	0.000630
392.1706	0.001242
394.9912	0.003691
397.8140	0.003565
400.6390	0.006563
403.4661	0.006014
406.2954	0.009561
409.1269	0.010215
411.9605	0.011081
414.7962	0.013847
417.6341	0.014100
420.4741	0.018154
423.3162	0.017753
426.1605	0.017584
429.0068	0.019527
431.8553	0.019843
434.7059	0.021005
437.5586	0.021490
440.4135	0.021005
443.2703	0.027339
446.1293	0.023686
448.9904	0.021828
451.8535	0.019674
454.7188	0.017647
457.5860	0.018640
460.4554	0.016233
463.3268	0.013087
466.2003	0.013763
469.0758	0.011609
471.9533	0.006964
474.8329	0.008949
477.7145	0.006373
480.5982	0.007302
483.4838	0.005402
486.3715	0.016169
489.2612	0.004473
492.1529	0.004114
495.0466	0.004515
497.9423	0.004388
500.8400	0.003332
503.7397	0.004768
506.6414	0.002509
509.5450	0.003248
512.4506	0.001770
515.3582	0.003037
518.2677	0.002425
521.1792	0.002298
524.0927	0.004156
527.0081	0.004219
529.9254	0.005803
532.8447	0.005866
535.7659	0.007492
538.6890	0.009371
541.6140	0.011313
544.5410	0.014417
547.4699	0.017479
550.4007	0.019315
553.3333	0.021997
556.2679	0.026051
559.2044	0.025143
562.1427	0.034074
565.0829	0.038972
568.0250	0.053456
570.9690	0.110611
573.9149	0.147391
576.8626	0.174268
579.8121	0.199457
582.7635	0.256780
585.7167	0.227115
588.6718	0.196290
591.6288	0.129740
594.5875	0.167871
597.5481	0.151846
600.5105	0.179990
603.4747	0.185817
606.4407	0.159742
609.4085	0.131429
612.3781	0.127269
615.3495	0.130310
618.3227	0.109048
621.2977	0.073704
624.2745	0.084008
627.2530	0.070178
630.2333	0.063802
633.2154	0.044968
636.1992	0.044821
639.1848	0.041231
642.1721	0.030160
645.1612	0.024898
648.1520	0.028570
651.1445	0.029096
654.1388	0.032293
657.1348	0.870559
660.1325	0.059924
663.1319	0.019852
666.1330	0.022827
669.1359	0.019527
672.1404	0.031646
675.1466	0.026008
678.1545	0.030062
681.1641	0.035615
684.1754	0.035298
687.1883	0.046235
690.2029	0.034348
693.2192	0.039458
696.2371	0.028774
699.2567	0.036565
702.2779	0.031308
705.3008	0.023475
708.3253	0.039183
711.3514	0.033630
714.3791	0.034475
717.4085	0.029957
720.4395	0.026051
723.4721	0.025650
726.5063	0.033440
729.5421	0.036164
732.5795	0.042857
735.6185	0.047523
738.6591	0.038107
741.7013	0.035087
744.7450	0.029598
747.7903	0.030822
750.8372	0.040598
753.8856	0.040767
756.9356	0.051345
759.9872	0.062007
763.0403	0.048516
766.0949	0.049487
769.1510	0.047354
772.2087	0.040577
775.2679	0.030020
778.3287	0.025713
781.3909	0.034581
784.4547	0.029133
787.5199	0.029724
790.5867	0.025671
793.6550	0.023644
796.7247	0.022398
799.7959	0.021068
802.8686	0.016402
805.9428	0.018661
809.0185	0.021427
812.0956	0.018091
815.1742	0.016718
818.2542	0.014312
821.3357	0.014375
824.4186	0.011039
827.5029	0.014016
830.5887	0.009603
833.6759	0.010068
836.7646	0.007450
839.8546	0.008125
842.9461	0.004726
846.0390	0.006331
849.1333	0.005296
852.2289	0.006246
855.3260	0.013129
858.4245	0.009709
861.5243	0.007091
864.6255	0.007048
867.7281	0.004853
870.8321	0.006584
873.9374	0.005634
877.0441	0.004325
880.1521	0.006415
883.2615	0.005359
886.3722	0.006880
889.4843	0.004641
892.5977	0.006141
895.7124	0.004684
898.8284	0.005317
901.9458	0.005233
905.0644	0.004937
908.1844	0.002910
911.3057	0.004346
914.4283	0.002910
917.5521	0.004578
920.6773	0.003459
923.8037	0.003712
926.9314	0.003417
930.0604	0.002488
933.1906	0.002298
936.3221	0.003881
939.4549	0.002235
942.5889	0.001918
945.7241	-0.000109
948.8606	-0.000151
951.9983	-0.000130
955.1373	0.002235
958.2775	0.001327
961.4189	0.000630
964.5615	0.002551
967.7053	0.002002
970.8504	0.002446
973.9966	0.000355
977.1440	0.000904
980.2926	0.000334
983.4424	0.000989
986.5934	0.000799
989.7456	0.000841
992.8989	-0.000510
996.0534	0.000313
999.2090	-0.000384
1002.37	-0.000109
1005.52	0.001643
1008.68	-0.000637
1011.84	0.000440
1015	-0.001629
1018.17	0.001221
1021.33	-0.000130
1023.03	-0.000552

File: spectrum_2025-06-19_12-24-52.txt
# Wavelength (nm)	Intensity (a.u.)
197.7802	0.000862
200.4334	0.000376
203.0892	0.000060
205.7475	0.000524
208.4084	0.000524
211.0718	-0.001038
213.7376	0.000355
216.4060	0.001158
219.0769	0.000588
221.7503	-0.001017
224.4262	0.001348
227.1046	0.000018
229.7855	0.001305
232.4688	0.000609
235.1546	0.000799
237.8429	-0.000257
240.5337	0.000545
243.2269	0.001200
245.9225	-0.000004
248.6206	0.001073
251.3212	0.000566
254.0242	-0.000637
256.7296	0.000292
259.4375	0.000398
262.1477	-0.000595
264.8604	0.001495
267.5755	0.000862
270.2931	0.000545
273.0130	0.001538
275.7353	0.001200
278.4600	0.000123
281.1871	0.000756
283.9166	0.000123
286.6484	-0.000848
289.3827	0.001179
292.1193	0.000503
294.8582	0.000883
297.5995	-0.000426
300.3432	0.000799
303.0892	-0.000215
305.8376	0.002044
308.5883	0.000271
311.3413	0.000989
314.0967	-0.001502
316.8543	0.000566
319.6143	0.000566
322.3766	0.002171
325.1412	-0.000341
327.9082	0.000778
330.6774	-0.000046
333.4489	0.001305
336.2227	0.000756
338.9987	0.000398
341.7771	0.000081
344.5577	0.000419
347.3406	0.001221
350.1257	0.000904
352.9131	-0.000151
355.7027	0.001622
358.4946	0.000524
361.2888	0.000271
364.0851	-0.000531
366.8837	0.001432
369.6845	0.000039
372.4876	-0.000130
375.2928	0.000545
378.1003	0.001284
380.9100	-0.000257
383.7219	0.000862
386.5359	0.000334
389.3522	0.001981
392.1706	0.002614
394.9912	0.001453
397.8140	0.003965
400.6390	0.005063
403.4661	0.006583
406.2954	0.007808
409.1269	0.009982
411.9605	0.010066
414.7962	0.011502
417.6341	0.013507
420.4741	0.014859
423.3162	0.018806
426.1605	0.015365
429.0068	0.018532
431.8553	0.019587
434.7059	0.020516
437.5586	0.021910
440.4135	0.021910
443.2703	0.026554
446.1293	0.024316
448.9904	0.023303
451.8535	0.020939
454.7188	0.017012
457.5860	0.016653
460.4554	0.017371
463.3268	0.014436
466.2003	0.014837
469.0758	0.009665
471.9533	0.007955
474.8329	0.008694
477.7145	0.007955
480.5982	0.007428
483.4838	0.005443
486.3715	0.016674
489.2612	0.004409
492.1529	0.004641
495.0466	0.003606
497.9423	0.005739
500.8400	0.003649
503.7397	0.003564
506.6414	0.002846
509.5450	0.004345
512.4506	0.004261
515.3582	0.003564
518.2677	0.004641
521.1792	0.002213
524.0927	0.004113
527.0081	0.003501
529.9254	0.004936
532.8447	0.006731
535.7659	0.009412
538.6890	0.008821
541.6140	0.011312
544.5410	0.013697
547.4699	0.016125
550.4007	0.016843
553.3333	0.020559
556.2679	0.023873
559.2044	0.023219
562.1427	0.033077
565.0829	0.040361
568.0250	0.053407
570.9690	0.107873
573.9149	0.150095
576.8626	0.173338
579.8121	0.201289
582.7635	0.254995
585.7167	0.223857
588.6718	0.192528
591.6288	0.127126
594.5875	0.165823
597.5481	0.149504
600.5105	0.180157
603.4747	0.186554
606.4407	0.161242
609.4085	0.133692
612.3781	0.127169
615.3495	0.124762
618.3227	0.108274
621.2977	0.075046
624.2745	0.088240
627.2530	0.072006
630.2333	0.060332
633.2154	0.044963
636.1992	0.043907
639.1848	0.041226
642.1721	0.030688
645.1612	0.027901
648.1520	0.027600
651.1445	0.026962
654.1388	0.031585
657.1348	0.856580
660.1325	0.062995
663.1319	0.019449
666.1330	0.024714
669.1359	0.020495
672.1404	0.031051
675.1466	0.027715
678.1545	0.028264
681.1641	0.034238
684.1754	0.033521
687.1883	0.043337
690.2029	0.036497
693.2192	0.039094
696.2371	0.029320
699.2567	0.034344
702.2779	0.027293
705.3008	0.026744
708.3253	0.038186
711.3514	0.032486
714.3791	0.033436
717.4085	0.027356
720.4395	0.027187
723.4721	0.029341
726.5063	0.033964
729.5421	0.038102
732.5795	0.041332
735.6185	0.048256
738.6591	0.039326
741.7013	0.034471
744.7450	0.029678
747.7903	0.031156
750.8372	0.040339
753.8856	0.043485
756.9356	0.050473
759.9872	0.060310
763.0403	0.047982
766.0949	0.050114
769.1510	0.048889
772.2087	0.040593
775.2679	0.030776
778.3287	0.026047
781.3909	0.035336
784.4547	0.030523
787.5199	0.028496
790.5867	0.026301
793.6550	0.024907
796.7247	0.022965
799.7959	0.022205
802.8686	0.015830
805.9428	0.020305
809.0185	0.024042
812.0956	0.016379
815.1742	0.016041
818.2542	0.014120
821.3357	0.014795
824.4186	0.010425
827.5029	0.013866
830.5887	0.010700
833.6759	0.009834
836.7646	0.006414
839.8546	0.008335
842.9461	0.006372
846.0390	0.006034
849.1333	0.005126
852.2289	0.007765
855.3260	0.012579
858.4245	0.009222
861.5243	0.006836
864.6255	0.006858
867.7281	0.005380
870.8321	0.004029
873.9374	0.005612
877.0441	0.005992
880.1521	0.008166
883.2615	0.005295
886.3722	0.007976
889.4843	0.005380
892.5977	0.004704
895.7124	0.004029
898.8284	0.006858
901.9458	0.003585
905.0644	0.005063
908.1844	0.003839
911.3057	0.004261
914.4283	0.003121
917.5521	0.006288
920.6773	0.004008
923.8037	0.002614
926.9314	0.002234
930.0604	0.002150
933.1906	0.003459
936.3221	0.000925
939.4549	0.002002
942.5889	0.000904
945.7241	0.001369
948.8606	0.000334
951.9983	0.001453
955.1373	0.001411
958.2775	0.001474
961.4189	-0.000299
964.5615	0.001601
967.7053	0.001369
970.8504	0.000482
973.9966	0.001263
977.1440	0.001263
980.2926	0.001622
983.4424	-0.000236
986.5934	0.001284
989.7456	0.000081
992.8989	0.000524
996.0534	0.000503
999.2090	0.000778
1002.37	0.000693
1005.52	0.001981
1008.68	0.000398
1011.84	0.000883
1015	0.000292
1018.17	0.000524
1021.33	0.001390
1023.03	0.001622

File: spectrum_2025-06-19_12-29-59.txt
# Wavelength (nm)	Intensity (a.u.)
197.7802	0.000825
200.4334	0.000487
203.0892	0.000783
205.7475	0.000065
208.4084	-0.000040
211.0718	0.001585
213.7376	0.001395
216.4060	-0.000315
219.0769	-0.000864
221.7503	-0.000378
224.4262	0.000952
227.1046	0.000023
229.7855	0.001079
232.4688	0.000044
235.1546	0.000318
237.8429	0.000255
240.5337	0.001374
243.2269	0.000635
245.9225	-0.000336
248.6206	0.000635
251.3212	0.001986
254.0242	0.000128
256.7296	0.000910
259.4375	-0.001202
262.1477	0.000318
264.8604	0.000213
267.5755	-0.000188
270.2931	-0.000463
273.0130	-0.000758
275.7353	-0.000547
278.4600	0.001269
281.1871	0.001100
283.9166	0.000234
286.6484	0.000593
289.3827	-0.000062
292.1193	-0.000568
294.8582	0.000762
297.5995	-0.000505
300.3432	0.001986
303.0892	0.000044
305.8376	0.001480
308.5883	-0.000758
311.3413	0.000867
314.0967	0.001015
316.8543	0.000508
319.6143	0.000171
322.3766	0.000150
325.1412	-0.000273
327.9082	0.001353
330.6774	0.000593
333.4489	0.000255
336.2227	0.000044
338.9987	0.000171
341.7771	0.001649
344.5577	0.000635
347.3406	-0.000885
350.1257	0.000656
352.9131	0.001015
355.7027	0.000994
358.4946	-0.000230
361.2888	-0.000230
364.0851	0.000614
366.8837	0.000445
369.6845	-0.000230
372.4876	0.000931
375.2928	0.000741
378.1003	-0.000125
380.9100	-0.000167
383.7219	-0.000357
386.5359	-0.000547
389.3522	-0.000209
392.1706	-0.000420
394.9912	0.002219
397.8140	0.003971
400.6390	0.005449
403.4661	0.005280
406.2954	0.008869
409.1269	0.009840
411.9605	0.009946
414.7962	0.012416
417.6341	0.014569
420.4741	0.014253
423.3162	0.017884
426.1605	0.016871
429.0068	0.019024
431.8553	0.021917
434.7059	0.020692
437.5586	0.020734
440.4135	0.020819
443.2703	0.021853
446.1293	0.024176
448.9904	0.021874
451.8535	0.020291
454.7188	0.016807
457.5860	0.016807
460.4554	0.017145
463.3268	0.013366
466.2003	0.014337
469.0758	0.011297
471.9533	0.008637
474.8329	0.007307
477.7145	0.007307
480.5982	0.007687
483.4838	0.006652
486.3715	0.018011
489.2612	0.005597
492.1529	0.003063
495.0466	0.004055
497.9423	0.004478
500.8400	0.004984
503.7397	0.004499
506.6414	0.003823
509.5450	0.003232
512.4506	0.004267
515.3582	0.000994
518.2677	0.004478
521.1792	0.003084
524.0927	0.002831
527.0081	0.003802
529.9254	0.005575
532.8447	0.004794
535.7659	0.008447
538.6890	0.008616
541.6140	0.009524
544.5410	0.014337
547.4699	0.014189
550.4007	0.017779
553.3333	0.021473
556.2679	0.025506
559.2044	0.024345
562.1427	0.033887
565.0829	0.036484
568.0250	0.053797
570.9690	0.102440
573.9149	0.141815
576.8626	0.164342
579.8121	0.197193
582.7635	0.277527
585.7167	0.230657
588.6718	0.198587
591.6288	0.125242
594.5875	0.167784
597.5481	0.145130
600.5105	0.182457
603.4747	0.178614
606.4407	0.170359
609.4085	0.136790
612.3781	0.131217
615.3495	0.125854
618.3227	0.112236
621.2977	0.082468
624.2745	0.085719
627.2530	0.071510
630.2333	0.063888
633.2154	0.044338
636.1992	0.043114
639.1848	0.040897
642.1721	0.031335
645.1612	0.028672
648.1520	0.029079
651.1445	0.029270
654.1388	0.032340
657.1348	1.000000
660.1325	0.100591
663.1319	0.023520
666.1330	0.025226
669.1359	0.022170
672.1404	0.030932
675.1466	0.025084
678.1545	0.029243
681.1641	0.033001
684.1754	0.031523
687.1883	0.042501
690.2029	0.034816
693.2192	0.040327
696.2371	0.031818
699.2567	0.037920
702.2779	0.029222
705.3008	0.026941
708.3253	0.037371
711.3514	0.032452
714.3791	0.034458
717.4085	0.026498
720.4395	0.029327
723.4721	0.027153
726.5063	0.033296
729.5421	0.033719
732.5795	0.039567
735.6185	0.045626
738.6591	0.040432
741.7013	0.033423
744.7450	0.031396
747.7903	0.032431
750.8372	0.040073
753.8856	0.041192
756.9356	0.049363
759.9872	0.059075
763.0403	0.048920
766.0949	0.053923
769.1510	0.048328
772.2087	0.040538
775.2679	0.031438
778.3287	0.025421
781.3909	0.034310
784.4547	0.030826
787.5199	0.030108
790.5867	0.025485
793.6550	0.023395
796.7247	0.023437
799.7959	0.021959
802.8686	0.017800
805.9428	0.018327
809.0185	0.024281
812.0956	0.016512
815.1742	0.017926
818.2542	0.014591
821.3357	0.015414
824.4186	0.011719
827.5029	0.014063
830.5887	0.010811
833.6759	0.009355
836.7646	0.010452
839.8546	0.006779
842.9461	0.005385
846.0390	0.005385
849.1333	0.004372
852.2289	0.006589
855.3260	0.012585
858.4245	0.009777
861.5243	0.007623
864.6255	0.008088
867.7281	0.006357
870.8321	0.004731
873.9374	0.004900
877.0441	0.004562
880.1521	0.008573
883.2615	0.006293
886.3722	0.005660
889.4843	0.005407
892.5977	0.003612
895.7124	0.005111
898.8284	0.004963
901.9458	0.005744
905.0644	0.005280
908.1844	0.004055
911.3057	0.004478
914.4283	0.001480
917.5521	0.004140
920.6773	0.003760
923.8037	0.002746
926.9314	0.003105
930.0604	0.001627
933.1906	0.002050
936.3221	0.000720
939.4549	0.001585
942.5889	0.001944
945.7241	0.002620
948.8606	-0.000568
951.9983	0.000361
955.1373	0.001712
958.2775	0.001142
961.4189	0.002620
964.5615	-0.000252
967.7053	0.000804
970.8504	0.000741
973.9966	0.001459
977.1440	0.000382
980.2926	0.001100
983.4424	0.000297
986.5934	0.001923
989.7456	-0.001476
992.8989	0.001480
996.0534	0.000572
999.2090	0.000171
1002.37	0.000255
1005.52	0.000150
1008.68	0.000931
1011.84	-0.000716
1015	0.001163
1018.17	-0.000146
1021.33	0.001311
1023.03	-0.000484

File: spectrum_2025-06-19_12-40-13.txt
# Wavelength (nm)	Intensity (a.u.)
197.7802	-0.000121
200.4334	0.000237
203.0892	0.000153
205.7475	-0.000375
208.4084	0.001588
211.0718	-0.000290
213.7376	0.001019
216.4060	-0.000332
219.0769	0.000786
221.7503	0.000259
224.4262	0.000681
227.1046	0.000090
229.7855	-0.000185
232.4688	0.000976
235.1546	0.000026
237.8429	-0.001768
240.5337	0.000280
243.2269	0.000280
245.9225	0.000280
248.6206	0.000069
251.3212	0.001040
254.0242	0.001019
256.7296	0.000955
259.4375	-0.000227
262.1477	0.000470
264.8604	0.000280
267.5755	0.000322
270.2931	0.000660
273.0130	-0.000079
275.7353	0.000681
278.4600	0.000111
281.1871	0.000069
283.9166	-0.000164
286.6484	-0.000396
289.3827	-0.000332
292.1193	-0.000079
294.8582	-0.000354
297.5995	0.001610
300.3432	0.001757
303.0892	-0.000269
305.8376	0.000491
308.5883	-0.000100
311.3413	0.000660
314.0967	0.000301
316.8543	0.000660
319.6143	0.001061
322.3766	0.001103
325.1412	0.000111
327.9082	0.001567
330.6774	0.000829
333.4489	0.001504
336.2227	0.000090
338.9987	-0.000079
341.7771	-0.000142
344.5577	0.001377
347.3406	-0.000311
350.1257	0.001082
352.9131	-0.000311
355.7027	0.000005
358.4946	-0.000628
361.2888	0.000237
364.0851	-0.000206
366.8837	0.000026
369.6845	-0.000396
372.4876	0.000195
375.2928	0.000343
378.1003	0.001778
380.9100	0.001462
383.7219	0.000111
386.5359	-0.000185
389.3522	0.000259
392.1706	0.000449
394.9912	0.001947
397.8140	0.003129
400.6390	0.004882
403.4661	0.006549
406.2954	0.007647
409.1269	0.007921
411.9605	0.009462
414.7962	0.010687
417.6341	0.013072
420.4741	0.015605
423.3162	0.015310
426.1605	0.015394
429.0068	0.018455
431.8553	0.019447
434.7059	0.018835
437.5586	0.019954
440.4135	0.020545
443.2703	0.023943
446.1293	0.023479
448.9904	0.021832
451.8535	0.019890
454.7188	0.017547
457.5860	0.017568
460.4554	0.016091
463.3268	0.014275
466.2003	0.012312
469.0758	0.011721
471.9533	0.009019
474.8329	0.008217
477.7145	0.007795
480.5982	0.007267
483.4838	0.006423
486.3715	0.016260
489.2612	0.004839
492.1529	0.004523
495.0466	0.003889
497.9423	0.004269
500.8400	0.003404
503.7397	0.003868
506.6414	0.002517
509.5450	0.004333
512.4506	0.003615
515.3582	0.003172
518.2677	0.002285
521.1792	0.003995
524.0927	0.003974
527.0081	0.004480
529.9254	0.006148
532.8447	0.004459
535.7659	0.007457
538.6890	0.007879
541.6140	0.010412
544.5410	0.013790
547.4699	0.015880
550.4007	0.017526
553.3333	0.020882
556.2679	0.024661
559.2044	0.024133
562.1427	0.033063
565.0829	0.036503
568.0250	0.053834
570.9690	0.103652
573.9149	0.144837
576.8626	0.173018
579.8121	0.200566
582.7635	0.248146
585.7167	0.222498
588.6718	0.190095
591.6288	0.126113
594.5875	0.163392
597.5481	0.148573
600.5105	0.177388
603.4747	0.182158
606.4407	0.160458
609.4085	0.126831
612.3781	0.125838
615.3495	0.125226
618.3227	0.102597
621.2977	0.072938
624.2745	0.084337
627.2530	0.069941
630.2333	0.058626
633.2154	0.043554
636.1992	0.044694
639.1848	0.039860
642.1721	0.031972
645.1612	0.028492
648.1520	0.027651
651.1445	0.030569
654.1388	0.033554
657.1348	0.856168
660.1325	0.061110
663.1319	0.020362
666.1330	0.022726
669.1359	0.020439
672.1404	0.032535
675.1466	0.026941
678.1545	0.029495
681.1641	0.035680
684.1754	0.031226
687.1883	0.045222
690.2029	0.036820
693.2192	0.039142
696.2371	0.028651
699.2567	0.035722
702.2779	0.028988
705.3008	0.024703
708.3253	0.036862
711.3514	0.033168
714.3791	0.036419
717.4085	0.028651
720.4395	0.029706
723.4721	0.026603
726.5063	0.033928
729.5421	0.037242
732.5795	0.039670
735.6185	0.050731
738.6591	0.041105
741.7013	0.033105
744.7450	0.028904
747.7903	0.030487
750.8372	0.040768
753.8856	0.042435
756.9356	0.050119
759.9872	0.060019
763.0403	0.049380
766.0949	0.050140
769.1510	0.046383
772.2087	0.040789
775.2679	0.030487
778.3287	0.025484
781.3909	0.034815
784.4547	0.029432
787.5199	0.028271
790.5867	0.026751
793.6550	0.022022
796.7247	0.023057
799.7959	0.022043
802.8686	0.015014
805.9428	0.018877
809.0185	0.021748
812.0956	0.018518
815.1742	0.017083
818.2542	0.012988
821.3357	0.013705
824.4186	0.010898
827.5029	0.011974
830.5887	0.009737
833.6759	0.009483
836.7646	0.007140
839.8546	0.007774
842.9461	0.005093
846.0390	0.004502
849.1333	0.005072
852.2289	0.007098
855.3260	0.012650
858.4245	0.011341
861.5243	0.006971
864.6255	0.006338
867.7281	0.005409
870.8321	0.004502
873.9374	0.005135
877.0441	0.006887
880.1521	0.010581
883.2615	0.007161
886.3722	0.007161
889.4843	0.003256
892.5977	0.004987
895.7124	0.004607
898.8284	0.005937
901.9458	0.006486
905.0644	0.003699
908.1844	0.004269
911.3057	0.005198
914.4283	0.003319
917.5521	0.005557
920.6773	0.004839
923.8037	0.004438
926.9314	0.001377
930.0604	0.003467
933.1906	0.003045
936.3221	0.000723
939.4549	0.002665
942.5889	0.002264
945.7241	0.000997
948.8606	-0.000206
951.9983	0.001926
955.1373	0.000533
958.2775	0.002095
961.4189	0.001251
964.5615	0.001040
967.7053	0.000385
970.8504	0.000976
973.9966	0.000617
977.1440	0.001335
980.2926	0.000723
983.4424	0.000364
986.5934	0.000491
989.7456	-0.000079
992.8989	0.000596
996.0534	0.001293
999.2090	0.001251
1002.37	0.000090
1005.52	0.001335
1008.68	-0.000100
1011.84	0.001103
1015	0.001103
1018.17	-0.000121
1021.33	0.000216
1023.03	0.000871