Folder: Auto_Polymerization/Auto_Polymerization/Spectra (part 5)

File: spectrum_2025-06-20_07-22-25.txt
# Wavelength (nm)	Intensity (a.u.)
197.7802	0.001056
200.4334	0.002469
203.0892	0.000381
205.7475	-0.000504
208.4084	0.002363
211.0718	0.001035
213.7376	0.001372
216.4060	0.001710
219.0769	0.002110
221.7503	0.000719
224.4262	0.000951
227.1046	-0.000209
229.7855	0.001056
232.4688	-0.000146
235.1546	0.001140
237.8429	-0.001538
240.5337	0.000086
243.2269	-0.001074
245.9225	0.002089
248.6206	0.000655
251.3212	0.000487
254.0242	0.001689
256.7296	0.001267
259.4375	0.000255
262.1477	0.001056
264.8604	0.000213
267.5755	0.001267
270.2931	0.000571
273.0130	-0.000715
275.7353	0.001689
278.4600	0.000930
281.1871	0.000908
283.9166	0.001225
286.6484	-0.000926
289.3827	0.000571
292.1193	0.001098
294.8582	0.000339
297.5995	0.001077
300.3432	0.002258
303.0892	0.001668
305.8376	0.001246
308.5883	0.001077
311.3413	0.000908
314.0967	0.001393
316.8543	0.001183
319.6143	0.001625
322.3766	0.001984
325.1412	0.002848
327.9082	0.002110
330.6774	0.003165
333.4489	0.003945
336.2227	0.004156
338.9987	0.005800
341.7771	0.004641
344.5577	0.005590
347.3406	0.006581
350.1257	0.006201
352.9131	0.007825
355.7027	0.007129
358.4946	0.007234
361.2888	0.007255
364.0851	0.008015
366.8837	0.009006
369.6845	0.009828
372.4876	0.012738
375.2928	0.012780
378.1003	0.012654
380.9100	0.015732
383.7219	0.016934
386.5359	0.018705
389.3522	0.020034
392.1706	0.022227
394.9912	0.023471
397.8140	0.026824
400.6390	0.026507
403.4661	0.024905
406.2954	0.026191
409.1269	0.026360
411.9605	0.025073
414.7962	0.028110
417.6341	0.026402
420.4741	0.030408
423.3162	0.032770
426.1605	0.027477
429.0068	0.029185
431.8553	0.028679
434.7059	0.031842
437.5586	0.033255
440.4135	0.030155
443.2703	0.040192
446.1293	0.039286
448.9904	0.038843
451.8535	0.038400
454.7188	0.034689
457.5860	0.036671
460.4554	0.038231
463.3268	0.035638
466.2003	0.042406
469.0758	0.033930
471.9533	0.030556
474.8329	0.035975
477.7145	0.034520
480.5982	0.038695
483.4838	0.038526
486.3715	0.124959
489.2612	0.039159
492.1529	0.036987
495.0466	0.038020
497.9423	0.037557
500.8400	0.036123
503.7397	0.041120
506.6414	0.041753
509.5450	0.035659
512.4506	0.033171
515.3582	0.031610
518.2677	0.031273
521.1792	0.030092
524.0927	0.030155
527.0081	0.028426
529.9254	0.029143
532.8447	0.030071
535.7659	0.034626
538.6890	0.034499
541.6140	0.036376
544.5410	0.037788
547.4699	0.037451
550.4007	0.035511
553.3333	0.038885
556.2679	0.041584
559.2044	0.034836
562.1427	0.043208
565.0829	0.044937
568.0250	0.060794
570.9690	0.114416
573.9149	0.150073
576.8626	0.170421
579.8121	0.182462
582.7635	0.223896
585.7167	0.200343
588.6718	0.163864
591.6288	0.106087
594.5875	0.138750
597.5481	0.120763
600.5105	0.146425
603.4747	0.148935
606.4407	0.127342
609.4085	0.102882
612.3781	0.098433
615.3495	0.099445
618.3227	0.082597
621.2977	0.056513
624.2745	0.065074
627.2530	0.053920
630.2333	0.045401
633.2154	0.033845
636.1992	0.034900
639.1848	0.030577
642.1721	0.024833
645.1612	0.021870
648.1520	0.022835
651.1445	0.022064
654.1388	0.025205
657.1348	0.643003
660.1325	0.035886
663.1319	0.016908
666.1330	0.017748
669.1359	0.013834
672.1404	0.026802
675.1466	0.021510
678.1545	0.023049
681.1641	0.026318
684.1754	0.024757
687.1883	0.034077
690.2029	0.025938
693.2192	0.029586
696.2371	0.021362
699.2567	0.027857
702.2779	0.022585
705.3008	0.018642
708.3253	0.031020
711.3514	0.023661
714.3791	0.026381
717.4085	0.020877
720.4395	0.020666
723.4721	0.021257
726.5063	0.026191
729.5421	0.027667
732.5795	0.031378
735.6185	0.037620
738.6591	0.032896
741.7013	0.025094
744.7450	0.024082
747.7903	0.024884
750.8372	0.030535
753.8856	0.034668
756.9356	0.038252
759.9872	0.044051
763.0403	0.034921
766.0949	0.037683
769.1510	0.038400
772.2087	0.031758
775.2679	0.022480
778.3287	0.019528
781.3909	0.027182
784.4547	0.021868
787.5199	0.022986
790.5867	0.019422
793.6550	0.018726
796.7247	0.016175
799.7959	0.016723
802.8686	0.012822
805.9428	0.013096
809.0185	0.017651
812.0956	0.013792
815.1742	0.012780
818.2542	0.010376
821.3357	0.011894
824.4186	0.008078
827.5029	0.010545
830.5887	0.008542
833.6759	0.006749
836.7646	0.006222
839.8546	0.005020
842.9461	0.005463
846.0390	0.004029
849.1333	0.003586
852.2289	0.004472
855.3260	0.010714
858.4245	0.007698
861.5243	0.004978
864.6255	0.002912
867.7281	0.004662
870.8321	0.005210
873.9374	0.003017
877.0441	0.004050
880.1521	0.007951
883.2615	0.005547
886.3722	0.004788
889.4843	0.005189
892.5977	0.004999
895.7124	0.001921
898.8284	0.004198
901.9458	0.004050
905.0644	0.003755
908.1844	0.003017
911.3057	0.003123
914.4283	0.003839
917.5521	0.004324
920.6773	0.002300
923.8037	0.003692
926.9314	0.000866
930.0604	0.002047
933.1906	0.002068
936.3221	0.001857
939.4549	0.001499
942.5889	0.001162
945.7241	0.001077
948.8606	0.001140
951.9983	0.003017
955.1373	0.001436
958.2775	0.001183
961.4189	0.002237
964.5615	0.001014
967.7053	0.000318
970.8504	0.001562
973.9966	0.000571
977.1440	0.000571
980.2926	0.000381
983.4424	0.001710
986.5934	0.001162
989.7456	-0.000019
992.8989	-0.000504
996.0534	0.000908
999.2090	0.000318
1002.37	0.000213
1005.52	0.001246
1008.68	0.000761
1011.84	-0.000146
1015	0.000529
1018.17	0.000571
1021.33	0.000445
1023.03	0.001098