Folder: Auto_Polymerization/Auto_Polymerization/Spectra

Note: README.md
# Auto_Polymerization

[![Python 3.10](https://img.shields.io/badge/python-3.10-blue.svg)](https://www.python.org/downloads/)
[![License: MIT](https://img.shields.io/badge/License-MIT-yellow.svg)](https://opensource.org/licenses/MIT)

This repository contains the **Auto_Polymerization platform** for automated polymer synthesis and characterization.

## ğŸš€ Quick Start

### Device Testing

For testing real devices in your Auto_Polymerization platform, see the demo folder:

```bash
cd Auto_Polymerization/demo
python demo_device_test.py
```

This will guide you through testing individual devices with safe parameters.

For comprehensive device testing:

```bash
cd Auto_Polymerization/demo
python device_test_controller.py
```

ğŸ“– See [`Auto_Polymerization/demo/DEVICE_TESTING_README.md`](Auto_Polymerization/demo/DEVICE_TESTING_README.md) for detailed documentation.

## ğŸ“¦ Required Packages and Setup

### ğŸ”§ Hardware Drivers

Install drivers for the devices used in this project:

- **[Thorlabs CCS200 Spectrometer](https://www.thorlabs.com/thorproduct.cfm?partnumber=CCS200#ad-image-0)** - UV-VIS spectroscopy
- **[Thorlabs upLED Controller](https://www.thorlabs.com/thorproduct.cfm?partnumber=UPLED)** - LED control

### ğŸ Python Environment

**Python Version:** 3.10

Install the linear actuator and valves control package from the local source in editable mode:

```bash
pip install -e src/linear_actuator_and_valves/
```

### ğŸ“š Core Dependencies

```bash
pip install scipy numpy pandas matplotlib pyserial nmrglue requests pyyaml medusa-sdl
```

### ğŸ”¬ MatterLab Packages

Install from [MatterLab devices repository](https://gitlab.com/aspuru-guzik-group/self-driving-lab/devices):

#### Easy Installation (if available):
```bash
pip install matterlab_hotplates
pip install matterlab_pumps
pip install matterlab_serial_device
```

#### Manual Installation:

**Hotplates, Pumps, Serial Device:**

https://gitlab.com/aspuru-guzik-group/self-driving-lab/devices



**Spectrometers:**

- **NMR (Nanalysis Benchtop):**

  git clone https://gitlab.com/aspuru-guzik-group/self-driving-lab/devices/nmr
  cd nmr
  git checkout develop
  pip install -e .


- **UV-VIS (Thorlabs CCS200):**

  git clone https://gitlab.com/aspuru-guzik-group/self-driving-lab/devices/spectrometer
  cd spectrometer
  git checkout develop
  pip install -e .


> **Note:** If access is not public, contact Han Hao at University of Toronto.

### âš™ï¸ Configuration

**CSS200 Spectrometer DLL:**
Potentially you need to update the `DLL_FILE` value in `ccs_spectrometer.py` in the matterlab package:
The correct file path is typically: 
DLL_FILE = Path(r"C:\Program Files\IVI Foundation\VISA\Win64\Bin\TLCCS_64.dll")
#

**Arduino Setup:**
1. Install Arduino IDE on your PC
2. Upload the Arduino code from `users/setup/` to your Arduino board
3. An overview of the hardware connections of the GPIO pins is given in "Arduino_contacts_overview_2025_06_27_bb.jpg"
## âš ï¸ Important Notes



## ğŸ“ Project Struc

File: DMSO+Anisole_spectrum_2025-06-19_14-50-25.txt
# Wavelength (nm)	Intensity (a.u.)
197.7802	0.000215
200.4334	0.000004
203.0892	0.000257
205.7475	-0.000208
208.4084	-0.000039
211.0718	-0.000524
213.7376	-0.000440
216.4060	0.000383
219.0769	0.000447
221.7503	-0.000524
224.4262	-0.000503
227.1046	-0.000693
229.7855	-0.000988
232.4688	0.000151
235.1546	0.000932
237.8429	-0.000566
240.5337	0.000362
243.2269	-0.001199
245.9225	0.000784
248.6206	-0.000419
251.3212	0.000130
254.0242	-0.000376
256.7296	0.000658
259.4375	-0.000988
262.1477	-0.000461
264.8604	0.000257
267.5755	-0.000777
270.2931	0.000046
273.0130	0.000447
275.7353	-0.000208
278.4600	0.000594
281.1871	0.001903
283.9166	-0.000461
286.6484	0.000510
289.3827	0.001101
292.1193	-0.001010
294.8582	-0.000988
297.5995	0.000468
300.3432	0.001544
303.0892	-0.000250
305.8376	0.001375
308.5883	0.001080
311.3413	0.000193
314.0967	-0.000355
316.8543	0.001418
319.6143	0.000763
322.3766	0.001882
325.1412	0.002832
327.9082	0.002578
330.6774	0.002599
333.4489	0.002409
336.2227	0.003676
338.9987	0.004393
341.7771	0.004288
344.5577	0.006483
347.3406	0.007390
350.1257	0.008192
352.9131	0.008044
355.7027	0.009627
358.4946	0.010387
361.2888	0.008931
364.0851	0.009543
366.8837	0.010957
369.6845	0.012223
372.4876	0.011970
375.2928	0.015726
378.1003	0.018027
380.9100	0.018428
383.7219	0.021129
386.5359	0.021171
389.3522	0.024316
392.1706	0.026659
394.9912	0.029719
397.8140	0.033771
400.6390	0.031534
403.4661	0.032188
406.2954	0.034087
409.1269	0.033729
411.9605	0.030668
414.7962	0.034214
417.6341	0.032821
420.4741	0.036578
423.3162	0.041854
426.1605	0.035923
429.0068	0.038245
431.8553	0.039195
434.7059	0.040292
437.5586	0.041980
440.4135	0.040018
443.2703	0.051098
446.1293	0.048649
448.9904	0.047869
451.8535	0.047636
454.7188	0.043627
457.5860	0.046434
460.4554	0.048649
463.3268	0.045969
466.2003	0.053250
469.0758	0.042656
471.9533	0.040862
474.8329	0.046201
477.7145	0.044724
480.5982	0.049810
483.4838	0.051034
486.3715	0.159343
489.2612	0.049937
492.1529	0.049283
495.0466	0.050739
497.9423	0.046138
500.8400	0.046645
503.7397	0.054474
506.6414	0.051604
509.5450	0.045758
512.4506	0.042930
515.3582	0.039701
518.2677	0.039828
521.1792	0.038583
524.0927	0.035248
527.0081	0.035945
529.9254	0.037738
532.8447	0.037886
535.7659	0.046244
538.6890	0.042191
541.6140	0.045674
544.5410	0.047953
547.4699	0.046054
550.4007	0.046708
553.3333	0.047658
556.2679	0.052469
559.2044	0.044049
562.1427	0.055741
565.0829	0.058590
568.0250	0.076697
570.9690	0.148622
573.9149	0.194271
576.8626	0.220145
579.8121	0.238274
582.7635	0.292175
585.7167	0.256403
588.6718	0.216093
591.6288	0.138534
594.5875	0.176543
597.5481	0.156156
600.5105	0.188446
603.4747	0.186293
606.4407	0.160124
609.4085	0.132878
612.3781	0.129374
615.3495	0.125639
618.3227	0.107531
621.2977	0.074080
624.2745	0.084802
627.2530	0.067770
630.2333	0.058210
633.2154	0.044555
636.1992	0.040482
639.1848	0.039131
642.1721	0.030878
645.1612	0.024940
648.1520	0.029245
651.1445	0.028239
654.1388	0.032159
657.1348	0.832987
660.1325	0.051669
663.1319	0.020271
666.1330	0.020305
669.1359	0.019314
672.1404	0.029803
675.1466	0.025371
678.1545	0.026743
681.1641	0.031428
684.1754	0.031196
687.1883	0.041368
690.2029	0.032821
693.2192	0.038540
696.2371	0.027207
699.2567	0.032315
702.2779	0.029043
705.3008	0.024020
708.3253	0.036683
711.3514	0.031196
714.3791	0.033792
717.4085	0.024949
720.4395	0.026680
723.4721	0.027925
726.5063	0.032441
729.5421	0.034699
732.5795	0.039807
735.6185	0.047890
738.6591	0.039068
741.7013	0.032821
744.7450	0.031259
747.7903	0.029402
750.8372	0.038540
753.8856	0.040862
756.9356	0.050781
759.9872	0.058315
763.0403	0.047826
766.0949	0.047869
769.1510	0.047088
772.2087	0.038350
775.2679	0.029381
778.3287	0.024970
781.3909	0.033370
784.4547	0.029866
787.5199	0.028009
790.5867	0.025012
793.6550	0.026047
796.7247	0.020791
799.7959	0.020813
802.8686	0.016972
805.9428	0.019040
809.0185	0.020897
812.0956	0.015051
815.1742	0.015663
818.2542	0.012054
821.3357	0.015199
824.4186	0.010893
827.5029	0.012392
830.5887	0.010197
833.6759	0.008192
836.7646	0.007728
839.8546	0.008994
842.9461	0.004794
846.0390	0.006778
849.1333	0.002916
852.2289	0.005955
855.3260	0.012919
858.4245	0.010408
861.5243	0.004815
864.6255	0.005660
867.7281	0.005849
870.8321	0.005871
873.9374	0.005786
877.0441	0.004182
880.1521	0.007538
883.2615	0.006103
886.3722	0.006694
889.4843	0.005533
892.5977	0.004858
895.7124	0.004773
898.8284	0.005322
901.9458	0.004414
905.0644	0.002599
908.1844	0.002853
911.3057	0.004499
914.4283	0.003254
917.5521	0.004393
920.6773	0.003486
923.8037	0.003190
926.9314	0.003254
930.0604	0.002156
933.1906	0.002114
936.3221	0.002853
939.4549	0.003190
942.5889	0.000362
945.7241	0.000658
948.8606	0.002325
951.9983	0.000890
955.1373	0.000341
958.2775	0.000616
961.4189	0.001481
964.5615	0.001375
967.7053	-0.000039
970.8504	-0.000208
973.9966	-0.000482
977.1440	0.001861
980.2926	0.001017
983.4424	-0.000123
986.5934	-0.000798
989.7456	-0.000018
992.8989	0.000362
996.0534	0.001396
999.2090	-0.001537
1002.37	-0.000018
1005.52	0.001776
1008.68	0.000320
1011.84	0.000172
1015	0.000953
1018.17	0.000299
1021.33	0.000953
1023.03	-0.000545

File: DMSO+CTA_spectrum_2025-06-19_14-58-38.txt
# Wavelength (nm)	Intensity (a.u.)
197.7802	0.000294
200.4334	0.001771
203.0892	-0.000403
205.7475	0.000146
208.4084	0.000589
211.0718	-0.001394
213.7376	0.000484
216.4060	-0.000571
219.0769	0.000315
221.7503	-0.000677
224.4262	-0.001205
227.1046	0.000083
229.7855	0.001602
232.4688	0.000420
235.1546	0.001665
237.8429	0.000441
240.5337	0.000040
243.2269	-0.000930
245.9225	0.000378
248.6206	0.000294
251.3212	0.000167
254.0242	0.001518
256.7296	0.000927
259.4375	0.000209
262.1477	0.000125
264.8604	0.000631
267.5755	-0.000656
270.2931	0.000019
273.0130	-0.000445
275.7353	0.000484
278.4600	0.000230
281.1871	0.000526
283.9166	0.001581
286.6484	0.000083
289.3827	0.000399
292.1193	-0.000445
294.8582	0.000188
297.5995	-0.000804
300.3432	0.001138
303.0892	0.000441
305.8376	0.000420
308.5883	0.001138
311.3413	-0.000424
314.0967	0.000146
316.8543	0.000526
319.6143	0.000969
322.3766	0.001750
325.1412	0.000441
327.9082	0.000146
330.6774	0.001792
333.4489	0.001370
336.2227	-0.000888
338.9987	0.001496
341.7771	0.000779
344.5577	0.000336
347.3406	0.001940
350.1257	0.000294
352.9131	0.000462
355.7027	0.000399
358.4946	-0.000761
361.2888	0.000378
364.0851	0.000083
366.8837	-0.000149
369.6845	-0.000297
372.4876	0.002024
375.2928	0.003543
378.1003	0.003944
380.9100	0.006898
383.7219	0.010760
386.5359	0.010274
389.3522	0.016267
392.1706	0.020698
394.9912	0.025214
397.8140	0.027809
400.6390	0.029097
403.4661	0.029624
406.2954	0.032431
409.1269	0.032810
411.9605	0.033296
414.7962	0.032410
417.6341	0.033085
420.4741	0.037495
423.3162	0.041842
426.1605	0.035532
429.0068	0.037221
431.8553	0.039774
434.7059	0.037621
437.5586	0.038529
440.4135	0.041884
443.2703	0.044585
446.1293	0.043382
448.9904	0.042686
451.8535	0.041525
454.7188	0.037664
457.5860	0.037706
460.4554	0.035807
463.3268	0.031755
466.2003	0.041272
469.0758	0.030574
471.9533	0.025910
474.8329	0.027430
477.7145	0.023990
480.5982	0.027240
483.4838	0.025298
486.3715	0.085352
489.2612	0.022408
492.1529	0.020023
495.0466	0.021120
497.9423	0.019242
500.8400	0.019031
503.7397	0.017871
506.6414	0.015360
509.5450	0.015212
512.4506	0.014326
515.3582	0.011899
518.2677	0.012786
521.1792	0.011730
524.0927	0.013144
527.0081	0.012722
529.9254	0.013883
532.8447	0.015360
535.7659	0.016541
538.6890	0.021500
541.6140	0.021796
544.5410	0.026480
547.4699	0.027978
550.4007	0.030700
553.3333	0.031987
556.2679	0.034541
559.2044	0.032789
562.1427	0.041356
565.0829	0.046779
568.0250	0.066361
570.9690	0.123186
573.9149	0.166106
576.8626	0.188663
579.8121	0.218838
582.7635	0.300604
585.7167	0.249012
588.6718	0.207633
591.6288	0.132661
594.5875	0.174420
597.5481	0.150998
600.5105	0.184865
603.4747	0.182628
606.4407	0.171846
609.4085	0.137535
612.3781	0.132070
615.3495	0.127132
618.3227	0.108331
621.2977	0.080541
624.2745	0.085373
627.2530	0.070096
630.2333	0.060136
633.2154	0.043614
636.1992	0.042264
639.1848	0.041631
642.1721	0.030484
645.1612	0.029033
648.1520	0.025504
651.1445	0.027760
654.1388	0.031551
657.1348	1.000000
660.1325	0.082578
663.1319	0.024492
666.1330	0.024222
669.1359	0.021458
672.1404	0.029498
675.1466	0.023547
678.1545	0.027155
681.1641	0.034604
684.1754	0.032515
687.1883	0.043298
690.2029	0.036440
693.2192	0.036060
696.2371	0.029751
699.2567	0.036651
702.2779	0.027113
705.3008	0.023821
708.3253	0.040069
711.3514	0.033211
714.3791	0.035174
717.4085	0.029265
720.4395	0.027978
723.4721	0.028379
726.5063	0.032621
729.5421	0.035680
732.5795	0.038761
735.6185	0.046800
738.6591	0.039310
741.7013	0.032768
744.7450	0.029265
747.7903	0.031671
750.8372	0.039436
753.8856	0.039077
756.9356	0.047370
759.9872	0.059377
763.0403	0.048003
766.0949	0.050367
769.1510	0.048151
772.2087	0.041399
775.2679	0.028886
778.3287	0.025868
781.3909	0.031629
784.4547	0.031798
787.5199	0.028928
790.5867	0.024433
793.6550	0.020171
796.7247	0.023716
799.7959	0.021753
802.8686	0.017301
805.9428	0.018652
809.0185	0.023041
812.0956	0.016141
815.1742	0.016499
818.2542	0.014136
821.3357	0.015592
824.4186	0.012300
827.5029	0.011646
830.5887	0.011076
833.6759	0.011224
836.7646	0.009346
839.8546	0.007447
842.9461	0.004915
846.0390	0.005885
849.1333	0.004746
852.2289	0.004472
855.3260	0.013524
858.4245	0.009979
861.5243	0.004577
864.6255	0.005485
867.7281	0.006096
870.8321	0.004408
873.9374	0.005463
877.0441	0.005252
880.1521	0.007574
883.2615	0.006497
886.3722	0.006772
889.4843	0.004387
892.5977	0.004788
895.7124	0.004134
898.8284	0.004915
901.9458	0.004725
905.0644	0.004029
908.1844	0.002678
911.3057	0.004366
914.4283	0.004134
917.5521	0.003796
920.6773	0.005020
923.8037	0.002362
926.9314	0.002256
930.0604	0.002889
933.1906	0.002214
936.3221	0.001623
939.4549	0.002573
942.5889	0.000652
945.7241	0.000568
948.8606	0.000315
951.9983	0.001201
955.1373	0.002066
958.2775	0.001011
961.4189	0.001982
964.5615	-0.000023
967.7053	0.000652
970.8504	0.000716
973.9966	0.000273
977.1440	0.000758
980.2926	0.001243
983.4424	0.000251
986.5934	-0.000002
989.7456	0.000927
992.8989	0.001454
996.0534	0.002530
999.2090	0.000758
1002.37	0.001454
1005.52	-0.001078
1008.68	0.001264
1011.84	0.000863
1015	0.001011
1018.17	-0.000044
1021.33	0.001665
1023.03	-0.000382

File: pure_DMSO_spectrum_2025-06-19_14-37-37.txt
# Wavelength (nm)	Intensity (a.u.)
197.7802	0.000847
200.4334	0.000446
203.0892	0.001185
205.7475	0.000974
208.4084	0.001311
211.0718	0.001796
213.7376	0.000257
216.4060	0.002218
219.0769	0.000383
221.7503	0.000636
224.4262	0.000995
227.1046	0.000742
229.7855	0.001649
232.4688	0.001079
235.1546	0.003483
237.8429	0.001185
240.5337	-0.001388
243.2269	0.000278
245.9225	0.001902
248.6206	0.001796
251.3212	0.000700
254.0242	0.000995
256.7296	0.001290
259.4375	0.001649
262.1477	0.002028
264.8604	0.000425
267.5755	0.000974
270.2931	-0.000460
273.0130	0.000805
275.7353	-0.000460
278.4600	0.001206
281.1871	-0.000313
283.9166	0.000953
286.6484	0.000404
289.3827	0.002260
292.1193	0.001501
294.8582	0.002323
297.5995	0.000425
300.3432	0.001543
303.0892	0.001100
305.8376	0.001480
308.5883	0.002134
311.3413	0.001438
314.0967	-0.000271
316.8543	0.000784
319.6143	0.001796
322.3766	0.003294
325.1412	0.003146
327.9082	0.004643
330.6774	0.005487
333.4489	0.004643
336.2227	0.004875
338.9987	0.004559
341.7771	0.006373
344.5577	0.008313
347.3406	0.008461
350.1257	0.007828
352.9131	0.008292
355.7027	0.010570
358.4946	0.009305
361.2888	0.012131
364.0851	0.010211
366.8837	0.010380
369.6845	0.013649
372.4876	0.015547
375.2928	0.014683
378.1003	0.017509
380.9100	0.021769
383.7219	0.021769
386.5359	0.023478
389.3522	0.026008
392.1706	0.027379
394.9912	0.030965
397.8140	0.033179
400.6390	0.034845
403.4661	0.034023
406.2954	0.036132
409.1269	0.034635
411.9605	0.035162
414.7962	0.035415
417.6341	0.036153
420.4741	0.041700
423.3162	0.043387
426.1605	0.037650
429.0068	0.041594
431.8553	0.040456
434.7059	0.043936
437.5586	0.043999
440.4135	0.045328
443.2703	0.052330
446.1293	0.054165
448.9904	0.051528
451.8535	0.049398
454.7188	0.044653
457.5860	0.050221
460.4554	0.051127
463.3268	0.048365
466.2003	0.056653
469.0758	0.046277
471.9533	0.041004
474.8329	0.046256
477.7145	0.045328
480.5982	0.054312
483.4838	0.053237
486.3715	0.164722
489.2612	0.055261
492.1529	0.049630
495.0466	0.051739
497.9423	0.048786
500.8400	0.051950
503.7397	0.056717
506.6414	0.054418
509.5450	0.048997
512.4506	0.043345
515.3582	0.042206
518.2677	0.041869
521.1792	0.037271
524.0927	0.038262
527.0081	0.037672
529.9254	0.041152
532.8447	0.038979
535.7659	0.045349
538.6890	0.042628
541.6140	0.046804
544.5410	0.053194
547.4699	0.050706
550.4007	0.047226
553.3333	0.051528
556.2679	0.057961
559.2044	0.045770
562.1427	0.058783
565.0829	0.061399
568.0250	0.081224
570.9690	0.154556
573.9149	0.206060
576.8626	0.230019
579.8121	0.248600
582.7635	0.298395
585.7167	0.267455
588.6718	0.220950
591.6288	0.145930
594.5875	0.185328
597.5481	0.167612
600.5105	0.194777
603.4747	0.199564
606.4407	0.168350
609.4085	0.138802
612.3781	0.134837
615.3495	0.134879
618.3227	0.111890
621.2977	0.075445
624.2745	0.090188
627.2530	0.071881
630.2333	0.062306
633.2154	0.046593
636.1992	0.045011
639.1848	0.040477
642.1721	0.032984
645.1612	0.028689
648.1520	0.029358
651.1445	0.030242
654.1388	0.034269
657.1348	0.903030
660.1325	0.054627
663.1319	0.023055
666.1330	0.024236
669.1359	0.022676
672.1404	0.032420
675.1466	0.028054
678.1545	0.028139
681.1641	0.034171
684.1754	0.035225
687.1883	0.044821
690.2029	0.034086
693.2192	0.038515
696.2371	0.030480
699.2567	0.036765
702.2779	0.029341
705.3008	0.025228
708.3253	0.038663
711.3514	0.029889
714.3791	0.034803
717.4085	0.028750
720.4395	0.028645
723.4721	0.029805
726.5063	0.034276
729.5421	0.036912
732.5795	0.043767
735.6185	0.048913
738.6591	0.040941
741.7013	0.034318
744.7450	0.029910
747.7903	0.032357
750.8372	0.040350
753.8856	0.045011
756.9356	0.051697
759.9872	0.060323
763.0403	0.050178
766.0949	0.050495
769.1510	0.050495
772.2087	0.042459
775.2679	0.029552
778.3287	0.025249
781.3909	0.037714
784.4547	0.030986
787.5199	0.028835
790.5867	0.027485
793.6550	0.023688
796.7247	0.023014
799.7959	0.021537
802.8686	0.016370
805.9428	0.019597
809.0185	0.024300
812.0956	0.015822
815.1742	0.017256
818.2542	0.014915
821.3357	0.016855
824.4186	0.010865
827.5029	0.014894
830.5887	0.011118
833.6759	0.011857
836.7646	0.009199
839.8546	0.008819
842.9461	0.005825
846.0390	0.006900
849.1333	0.006963
852.2289	0.006605
855.3260	0.014345
858.4245	0.010528
861.5243	0.008292
864.6255	0.007385
867.7281	0.005023
870.8321	0.007111
873.9374	0.006183
877.0441	0.005234
880.1521	0.008651
883.2615	0.006415
886.3722	0.006985
889.4843	0.005466
892.5977	0.006521
895.7124	0.006985
898.8284	0.006879
901.9458	0.005719
905.0644	0.005466
908.1844	0.004538
911.3057	0.005424
914.4283	0.002830
917.5521	0.004222
920.6773	0.003863
923.8037	0.004622
926.9314	0.002239
930.0604	0.001712
933.1906	0.002134
936.3221	0.000594
939.4549	0.002872
942.5889	0.001775
945.7241	0.003019
948.8606	0.003273
951.9983	0.001733
955.1373	0.000615
958.2775	0.001564
961.4189	0.000763
964.5615	0.002513
967.7053	0.002302
970.8504	0.000278
973.9966	0.001838
977.1440	0.001628
980.2926	0.001543
983.4424	0.000932
986.5934	0.001396
989.7456	0.000531
992.8989	0.000341
996.0534	0.001121
999.2090	0.000383
1002.37	0.000932
1005.52	0.001206
1008.68	0.000847
1011.84	0.000721
1015	0.000130
1018.17	0.001628
1021.33	0.000362
1023.03	0.001522

File: spectrum_2025-06-19_10-06-24.txt
# Wavelength (nm)	Intensity (a.u.)
197.7802	0.000760
200.4334	-0.000253
203.0892	-0.000042
205.7475	0.000253
208.4084	-0.000084
211.0718	0.001203
213.7376	0.000718
216.4060	-0.000232
219.0769	0.000676
221.7503	-0.000802
224.4262	0.000000
227.1046	0.000084
229.7855	-0.000169
232.4688	0.001161
235.1546	-0.000507
237.8429	-0.000401
240.5337	-0.000676
243.2269	0.000528
245.9225	0.000739
248.6206	0.000063
251.3212	-0.000591
254.0242	-0.000549
256.7296	0.001056
259.4375	-0.000274
262.1477	0.000042
264.8604	0.000106
267.5755	0.000549
270.2931	0.001583
273.0130	-0.001034
275.7353	-0.000063
278.4600	0.000380
281.1871	-0.000971
283.9166	0.000633
286.6484	-0.000697
289.3827	-0.000591
292.1193	0.000718
294.8582	-0.000401
297.5995	0.000570
300.3432	0.001689
303.0892	0.001583
305.8376	-0.000317
308.5883	-0.000760
311.3413	-0.000296
314.0967	-0.000380
316.8543	0.000971
319.6143	-0.000866
322.3766	0.000274
325.1412	-0.000127
327.9082	0.001351
330.6774	0.000253
333.4489	0.000211
336.2227	0.000549
338.9987	-0.000253
341.7771	0.001499
344.5577	-0.000908
347.3406	-0.000887
350.1257	0.000084
352.9131	-0.000253
355.7027	0.000380
358.4946	0.000676
361.2888	0.000486
364.0851	0.000296
366.8837	0.000950
369.6845	0.000042
372.4876	0.000760
375.2928	-0.000317
378.1003	0.000802
380.9100	-0.000084
383.7219	0.001647
386.5359	0.000000
389.3522	0.001710
392.1706	0.005067
394.9912	0.009943
397.8140	0.015981
400.6390	0.019274
403.4661	0.020794
406.2954	0.025059
409.1269	0.025924
411.9605	0.027655
414.7962	0.028479
417.6341	0.030780
420.4741	0.031645
423.3162	0.033355
426.1605	0.030843
429.0068	0.032490
431.8553	0.031751
434.7059	0.030759
437.5586	0.030653
440.4135	0.029217
443.2703	0.032236
446.1293	0.028626
448.9904	0.028035
451.8535	0.025059
454.7188	0.022356
457.5860	0.021723
460.4554	0.019950
463.3268	0.017142
466.2003	0.018092
469.0758	0.011653
471.9533	0.009605
474.8329	0.009057
477.7145	0.007051
480.5982	0.007537
483.4838	0.005784
486.3715	0.018493
489.2612	0.005637
492.1529	0.005024
495.0466	0.001858
497.9423	0.003357
500.8400	0.003589
503.7397	0.003061
506.6414	0.004307
509.5450	0.003526
512.4506	0.000591
515.3582	0.003504
518.2677	0.002280
521.1792	0.002217
524.0927	0.002977
527.0081	0.003948
529.9254	0.005679
532.8447	0.006608
535.7659	0.006924
538.6890	0.009141
541.6140	0.011041
544.5410	0.014693
547.4699	0.016065
550.4007	0.019105
553.3333	0.024024
556.2679	0.027613
559.2044	0.024826
562.1427	0.034474
565.0829	0.039857
568.0250	0.055120
570.9690	0.114484
573.9149	0.159112
576.8626	0.187169
579.8121	0.209821
582.7635	0.260212
585.7167	0.237075
588.6718	0.198210
591.6288	0.133421
594.5875	0.173806
597.5481	0.148789
600.5105	0.188583
603.4747	0.193143
606.4407	0.163862
609.4085	0.132365
612.3781	0.128671
615.3495	0.131626
618.3227	0.110579
621.2977	0.075324
624.2745	0.088096
627.2530	0.070932
630.2333	0.061559
633.2154	0.045072
636.1992	0.041884
639.1848	0.044628
642.1721	0.030862
645.1612	0.027927
648.1520	0.029470
651.1445	0.028819
654.1388	0.032762
657.1348	0.869225
660.1325	0.058986
663.1319	0.022526
666.1330	0.023941
669.1359	0.020435
672.1404	0.031139
675.1466	0.026431
678.1545	0.029745
681.1641	0.033862
684.1754	0.034791
687.1883	0.043573
690.2029	0.034580
693.2192	0.039287
696.2371	0.030590
699.2567	0.036226
702.2779	0.029745
705.3008	0.025059
708.3253	0.038105
711.3514	0.033186
714.3791	0.034010
717.4085	0.026790
720.4395	0.028289
723.4721	0.030189
726.5063	0.032806
729.5421	0.037240
732.5795	0.041335
735.6185	0.048323
738.6591	0.042391
741.7013	0.035551
744.7450	0.028626
747.7903	0.034474
750.8372	0.040660
753.8856	0.042581
756.9356	0.052144
759.9872	0.059343
763.0403	0.049421
766.0949	0.050328
769.1510	0.048492
772.2087	0.043024
775.2679	0.028626
778.3287	0.024953
781.3909	0.034284
784.4547	0.030547
787.5199	0.029386
790.5867	0.025797
793.6550	0.026684
796.7247	0.020731
799.7959	0.022040
802.8686	0.016931
805.9428	0.020794
809.0185	0.021111
812.0956	0.015833
815.1742	0.014904
818.2542	0.015010
821.3357	0.014862
824.4186	0.010534
827.5029	0.014376
830.5887	0.008719
833.6759	0.009373
836.7646	0.008339
839.8546	0.007347
842.9461	0.006819
846.0390	0.006439
849.1333	0.003969
852.2289	0.005869
855.3260	0.014165
858.4245	0.009774
861.5243	0.006418
864.6255	0.007220
867.7281	0.004982
870.8321	0.006397
873.9374	0.004898
877.0441	0.004011
880.1521	0.007874
883.2615	0.006608
886.3722	0.006629
889.4843	0.006080
892.5977	0.004349
895.7124	0.004518
898.8284	0.006207
901.9458	0.002597
905.0644	0.005067
908.1844	0.004665
911.3057	0.003716
914.4283	0.001583
917.5521	0.004602
920.6773	0.003251
923.8037	0.002090
926.9314	0.003124
930.0604	0.000739
933.1906	0.002428
936.3221	0.001436
939.4549	0.001457
942.5889	0.001182
945.7241	0.001182
948.8606	-0.000464
951.9983	0.000971
955.1373	-0.000760
958.2775	0.000084
961.4189	-0.000296
964.5615	0.000380
967.7053	0.000676
970.8504	0.000718
973.9966	0.000232
977.1440	0.001710
980.2926	0.000380
983.4424	0.001203
986.5934	-0.000253
989.7456	0.000612
992.8989	0.000106
996.0534	0.000338
999.2090	0.001013
1002.37	-0.000591
1005.52	0.000317
1008.68	-0.000338
1011.84	0.000887
1015	0.000274
1018.17	0.000908
1021.33	0.000190
1023.03	-0.001457